part.code	age	gender	block.order	block.no	series	trial.no	number	resp.side	rt	correct.experimental	filter.correct.exp.antic	filter.seq
cipora2014_001	22	M	start_even_right	1	1	1	7	left	463.93	1	1	1
cipora2014_001	22	M	start_even_right	1	1	2	1	left	569.09	1	1	1
cipora2014_001	22	M	start_even_right	1	1	3	4	right	414.43	1	1	1
cipora2014_001	22	M	start_even_right	1	1	4	3	left	489.42	1	1	1
cipora2014_001	22	M	start_even_right	1	1	5	2	right	466.26	1	1	1
cipora2014_001	22	M	start_even_right	1	1	6	9	left	412	1	1	1
cipora2014_001	22	M	start_even_right	1	1	7	8	right	407.74	0	0	0
cipora2014_001	22	M	start_even_right	1	1	8	6	right	419.12	1	1	1
cipora2014_001	22	M	start_even_right	1	2	9	1	left	558.41	1	1	1
cipora2014_001	22	M	start_even_right	1	2	10	4	right	436.33	1	1	1
cipora2014_001	22	M	start_even_right	1	2	11	6	right	366.43	1	1	1
cipora2014_001	22	M	start_even_right	1	2	12	3	left	428.96	1	1	1
cipora2014_001	22	M	start_even_right	1	2	13	7	left	439.28	1	1	1
cipora2014_001	22	M	start_even_right	1	2	14	2	right	498.29	1	1	1
cipora2014_001	22	M	start_even_right	1	2	15	8	right	457.63	0	0	0
cipora2014_001	22	M	start_even_right	1	2	16	9	left	371.11	0	0	0
cipora2014_001	22	M	start_even_right	1	3	17	6	right	512.53	1	1	1
cipora2014_001	22	M	start_even_right	1	3	18	3	left	376	1	1	1
cipora2014_001	22	M	start_even_right	1	3	19	4	right	485.25	1	1	1
cipora2014_001	22	M	start_even_right	1	3	20	9	left	414.16	1	1	1
cipora2014_001	22	M	start_even_right	1	3	21	8	right	376.79	1	1	1
cipora2014_001	22	M	start_even_right	1	3	22	7	left	373.67	1	1	1
cipora2014_001	22	M	start_even_right	1	3	23	1	left	435.12	1	1	1
cipora2014_001	22	M	start_even_right	1	3	24	2	right	398.39	1	1	1
cipora2014_001	22	M	start_even_right	1	4	25	7	left	378.78	1	1	1
cipora2014_001	22	M	start_even_right	1	4	26	8	right	343.4	1	1	1
cipora2014_001	22	M	start_even_right	1	4	27	4	right	517.05	1	1	1
cipora2014_001	22	M	start_even_right	1	4	28	1	left	588.65	1	1	1
cipora2014_001	22	M	start_even_right	1	4	29	3	left	545.5	1	1	1
cipora2014_001	22	M	start_even_right	1	4	30	6	right	423.42	1	1	1
cipora2014_001	22	M	start_even_right	1	4	31	2	right	696.44	1	1	1
cipora2014_001	22	M	start_even_right	1	4	32	9	left	482.75	1	1	1
cipora2014_001	22	M	start_even_right	1	5	33	7	left	635.53	1	1	1
cipora2014_001	22	M	start_even_right	1	5	34	8	right	462.26	1	1	1
cipora2014_001	22	M	start_even_right	1	5	35	1	left	583.61	1	1	1
cipora2014_001	22	M	start_even_right	1	5	36	9	left	539.62	1	1	1
cipora2014_001	22	M	start_even_right	1	5	37	3	left	418.59	1	1	1
cipora2014_001	22	M	start_even_right	1	5	38	6	right	429.91	1	1	1
cipora2014_001	22	M	start_even_right	1	5	39	4	right	504.73	1	1	1
cipora2014_001	22	M	start_even_right	1	5	40	2	right	400.33	1	1	1
cipora2014_001	22	M	start_even_right	1	6	41	3	left	445.12	1	1	1
cipora2014_001	22	M	start_even_right	1	6	42	8	right	486.61	1	1	1
cipora2014_001	22	M	start_even_right	1	6	43	7	left	383.33	1	1	1
cipora2014_001	22	M	start_even_right	1	6	44	1	left	508.22	1	1	1
cipora2014_001	22	M	start_even_right	1	6	45	2	right	548.35	1	1	1
cipora2014_001	22	M	start_even_right	1	6	46	4	right	523.05	1	1	1
cipora2014_001	22	M	start_even_right	1	6	47	9	left	434.44	1	1	1
cipora2014_001	22	M	start_even_right	1	6	48	6	right	509.13	1	1	1
cipora2014_001	22	M	start_even_right	1	7	49	8	right	355.95	1	1	1
cipora2014_001	22	M	start_even_right	1	7	50	7	left	450.71	1	1	1
cipora2014_001	22	M	start_even_right	1	7	51	6	right	412.1	1	1	1
cipora2014_001	22	M	start_even_right	1	7	52	9	left	471.35	1	1	1
cipora2014_001	22	M	start_even_right	1	7	53	4	right	527.93	1	1	1
cipora2014_001	22	M	start_even_right	1	7	54	3	left	456.15	1	1	1
cipora2014_001	22	M	start_even_right	1	7	55	1	left	690.04	1	1	1
cipora2014_001	22	M	start_even_right	1	7	56	2	right	386.63	1	1	1
cipora2014_001	22	M	start_even_right	1	8	57	8	right	366.82	1	1	1
cipora2014_001	22	M	start_even_right	1	8	58	3	left	332.44	1	1	1
cipora2014_001	22	M	start_even_right	1	8	59	1	left	587.57	1	1	1
cipora2014_001	22	M	start_even_right	1	8	60	6	right	640.15	1	1	1
cipora2014_001	22	M	start_even_right	1	8	61	2	right	466.68	1	1	1
cipora2014_001	22	M	start_even_right	1	8	62	9	left	443.81	1	1	1
cipora2014_001	22	M	start_even_right	1	8	63	4	right	454.06	1	1	1
cipora2014_001	22	M	start_even_right	1	8	64	7	left	479.8	1	1	1
cipora2014_001	22	M	start_even_right	1	9	65	9	left	489.02	1	1	1
cipora2014_001	22	M	start_even_right	1	9	66	7	left	497.92	1	1	1
cipora2014_001	22	M	start_even_right	1	9	67	2	right	441.71	1	1	1
cipora2014_001	22	M	start_even_right	1	9	68	4	right	404.09	1	1	1
cipora2014_001	22	M	start_even_right	1	9	69	1	left	527.85	1	1	1
cipora2014_001	22	M	start_even_right	1	9	70	8	right	470.35	1	1	1
cipora2014_001	22	M	start_even_right	1	9	71	3	left	528.3	1	1	1
cipora2014_001	22	M	start_even_right	1	9	72	6	right	422.93	1	1	1
cipora2014_001	22	M	start_even_right	1	10	73	6	right	481.93	1	1	1
cipora2014_001	22	M	start_even_right	1	10	74	9	left	443.36	1	1	1
cipora2014_001	22	M	start_even_right	1	10	75	1	left	421.38	1	1	1
cipora2014_001	22	M	start_even_right	1	10	76	4	right	336.07	1	1	1
cipora2014_001	22	M	start_even_right	1	10	77	3	left	623.23	1	1	1
cipora2014_001	22	M	start_even_right	1	10	78	7	left	306.49	0	0	0
cipora2014_001	22	M	start_even_right	1	10	79	2	right	371.15	1	1	1
cipora2014_001	22	M	start_even_right	1	10	80	8	right	592.73	1	1	1
cipora2014_001	22	M	start_even_right	1	11	81	6	right	579.67	1	1	1
cipora2014_001	22	M	start_even_right	1	11	82	4	right	345.23	1	1	1
cipora2014_001	22	M	start_even_right	1	11	83	2	right	391.11	1	1	1
cipora2014_001	22	M	start_even_right	1	11	84	9	left	403.64	1	1	1
cipora2014_001	22	M	start_even_right	1	11	85	7	left	463.79	1	1	1
cipora2014_001	22	M	start_even_right	1	11	86	8	right	444.77	1	1	1
cipora2014_001	22	M	start_even_right	1	11	87	1	left	530.97	1	1	1
cipora2014_001	22	M	start_even_right	1	11	88	3	left	725.58	1	1	1
cipora2014_001	22	M	start_even_right	1	12	89	7	left	520.57	1	1	1
cipora2014_001	22	M	start_even_right	1	12	90	9	left	575.39	1	1	1
cipora2014_001	22	M	start_even_right	1	12	91	1	left	532.06	1	1	1
cipora2014_001	22	M	start_even_right	1	12	92	8	right	395.67	1	1	1
cipora2014_001	22	M	start_even_right	1	12	93	4	right	503.73	1	1	1
cipora2014_001	22	M	start_even_right	1	12	94	6	right	479.43	1	1	1
cipora2014_001	22	M	start_even_right	1	12	95	3	left	487.63	1	1	1
cipora2014_001	22	M	start_even_right	1	12	96	2	right	401.05	1	1	1
cipora2014_001	22	M	start_even_right	1	13	97	3	left	524.81	1	1	1
cipora2014_001	22	M	start_even_right	1	13	98	2	right	355.9	1	1	1
cipora2014_001	22	M	start_even_right	1	13	99	4	right	449.5	1	1	1
cipora2014_001	22	M	start_even_right	1	13	100	9	left	412.02	1	1	1
cipora2014_001	22	M	start_even_right	1	13	101	8	right	375.53	1	1	1
cipora2014_001	22	M	start_even_right	1	13	102	1	left	403.67	1	1	1
cipora2014_001	22	M	start_even_right	1	13	103	6	right	352.64	1	1	1
cipora2014_001	22	M	start_even_right	1	13	104	7	left	478.58	1	1	1
cipora2014_001	22	M	start_even_right	1	14	105	1	left	453.48	1	1	1
cipora2014_001	22	M	start_even_right	1	14	106	4	right	401.25	1	1	1
cipora2014_001	22	M	start_even_right	1	14	107	7	left	429.22	1	1	1
cipora2014_001	22	M	start_even_right	1	14	108	2	right	391.75	1	1	1
cipora2014_001	22	M	start_even_right	1	14	109	8	right	627.8	1	1	1
cipora2014_001	22	M	start_even_right	1	14	110	9	left	438.92	0	0	0
cipora2014_001	22	M	start_even_right	1	14	111	6	right	401.41	1	1	1
cipora2014_001	22	M	start_even_right	1	14	112	3	left	429.37	1	1	1
cipora2014_001	22	M	start_even_right	1	15	113	4	right	344.05	1	1	1
cipora2014_001	22	M	start_even_right	1	15	114	8	right	374.3	1	1	1
cipora2014_001	22	M	start_even_right	1	15	115	7	left	387.87	1	1	1
cipora2014_001	22	M	start_even_right	1	15	116	3	left	529.22	1	1	1
cipora2014_001	22	M	start_even_right	1	15	117	1	left	439.51	1	1	1
cipora2014_001	22	M	start_even_right	1	15	118	9	left	514.14	1	1	1
cipora2014_001	22	M	start_even_right	1	15	119	2	right	425.55	1	1	1
cipora2014_001	22	M	start_even_right	1	15	120	6	right	564.63	1	1	1
cipora2014_001	22	M	start_even_right	1	16	121	4	right	489.49	1	1	1
cipora2014_001	22	M	start_even_right	1	16	122	7	left	465.23	1	1	1
cipora2014_001	22	M	start_even_right	1	16	123	8	right	378.78	1	1	1
cipora2014_001	22	M	start_even_right	1	16	124	6	right	440.14	1	1	1
cipora2014_001	22	M	start_even_right	1	16	125	2	right	434.82	1	1	1
cipora2014_001	22	M	start_even_right	1	16	126	3	left	541.8	1	1	1
cipora2014_001	22	M	start_even_right	1	16	127	9	left	419.73	1	1	1
cipora2014_001	22	M	start_even_right	1	16	128	1	left	494.57	1	1	1
cipora2014_001	22	M	start_even_right	1	17	129	7	left	487.02	1	1	1
cipora2014_001	22	M	start_even_right	1	17	130	6	right	367.03	1	1	1
cipora2014_001	22	M	start_even_right	1	17	131	1	left	428.59	1	1	1
cipora2014_001	22	M	start_even_right	1	17	132	3	left	583.31	1	1	1
cipora2014_001	22	M	start_even_right	1	17	133	8	right	453.39	1	1	1
cipora2014_001	22	M	start_even_right	1	17	134	4	right	374.74	1	1	1
cipora2014_001	22	M	start_even_right	1	17	135	9	left	339.41	0	0	0
cipora2014_001	22	M	start_even_right	1	17	136	2	right	354.12	1	1	1
cipora2014_001	22	M	start_even_right	1	18	137	4	right	624.6	1	1	1
cipora2014_001	22	M	start_even_right	1	18	138	2	right	371.29	1	1	1
cipora2014_001	22	M	start_even_right	1	18	139	6	right	448.15	0	0	0
cipora2014_001	22	M	start_even_right	1	18	140	1	left	458.57	1	1	1
cipora2014_001	22	M	start_even_right	1	18	141	7	left	579.94	1	1	1
cipora2014_001	22	M	start_even_right	1	18	142	8	right	408.99	1	1	1
cipora2014_001	22	M	start_even_right	1	18	143	3	left	531.5	1	1	1
cipora2014_001	22	M	start_even_right	1	18	144	9	left	762.21	1	1	0
cipora2014_001	22	M	start_even_right	1	19	145	4	right	519.98	1	1	1
cipora2014_001	22	M	start_even_right	1	19	146	9	left	511.29	1	1	1
cipora2014_001	22	M	start_even_right	1	19	147	6	right	390.37	1	1	1
cipora2014_001	22	M	start_even_right	1	19	148	3	left	562.91	0	0	0
cipora2014_001	22	M	start_even_right	1	19	149	1	left	584.44	1	1	1
cipora2014_001	22	M	start_even_right	1	19	150	8	right	461.2	1	1	1
cipora2014_001	22	M	start_even_right	1	19	151	7	left	486.98	1	1	1
cipora2014_001	22	M	start_even_right	1	19	152	2	right	383.57	1	1	1
cipora2014_001	22	M	start_even_right	1	20	153	6	right	636.52	1	1	1
cipora2014_001	22	M	start_even_right	1	20	154	7	left	414.33	1	1	1
cipora2014_001	22	M	start_even_right	1	20	155	1	left	538.1	1	1	1
cipora2014_001	22	M	start_even_right	1	20	156	4	right	384.88	1	1	1
cipora2014_001	22	M	start_even_right	1	20	157	9	left	637.59	1	1	1
cipora2014_001	22	M	start_even_right	1	20	158	3	left	607.88	1	1	1
cipora2014_001	22	M	start_even_right	1	20	159	2	right	387.89	1	1	1
cipora2014_001	22	M	start_even_right	1	20	160	8	right	449.05	1	1	1
cipora2014_001	22	M	start_even_right	1	21	161	6	right	362.66	1	1	1
cipora2014_001	22	M	start_even_right	1	21	162	7	left	472.06	1	1	1
cipora2014_001	22	M	start_even_right	1	21	163	2	right	337.68	1	1	1
cipora2014_001	22	M	start_even_right	1	21	164	9	left	368.99	1	1	1
cipora2014_001	22	M	start_even_right	1	21	165	1	left	542.71	1	1	1
cipora2014_001	22	M	start_even_right	1	21	166	3	left	516.13	1	1	1
cipora2014_001	22	M	start_even_right	1	21	167	8	right	395.39	1	1	1
cipora2014_001	22	M	start_even_right	1	21	168	4	right	409.77	1	1	1
cipora2014_001	22	M	start_even_right	1	22	169	1	left	483.44	1	1	1
cipora2014_001	22	M	start_even_right	1	22	170	9	left	523.98	1	1	1
cipora2014_001	22	M	start_even_right	1	22	171	6	right	354.05	1	1	1
cipora2014_001	22	M	start_even_right	1	22	172	2	right	654.87	1	1	1
cipora2014_001	22	M	start_even_right	1	22	173	4	right	419.05	1	1	1
cipora2014_001	22	M	start_even_right	1	22	174	3	left	430.22	1	1	1
cipora2014_001	22	M	start_even_right	1	22	175	7	left	456.36	1	1	1
cipora2014_001	22	M	start_even_right	1	22	176	8	right	514.24	1	1	1
cipora2014_001	22	M	start_even_right	1	23	177	1	left	474.55	1	1	1
cipora2014_001	22	M	start_even_right	1	23	178	9	left	594.96	1	1	1
cipora2014_001	22	M	start_even_right	1	23	179	4	right	502.92	1	1	1
cipora2014_001	22	M	start_even_right	1	23	180	8	right	350.84	1	1	1
cipora2014_001	22	M	start_even_right	1	23	181	6	right	493.36	1	1	1
cipora2014_001	22	M	start_even_right	1	23	182	7	left	421.38	1	1	1
cipora2014_001	22	M	start_even_right	1	23	183	2	right	368.26	1	1	1
cipora2014_001	22	M	start_even_right	1	23	184	3	left	478.48	1	1	1
cipora2014_001	22	M	start_even_right	1	24	185	3	left	503.19	1	1	1
cipora2014_001	22	M	start_even_right	1	24	186	4	right	414.49	1	1	1
cipora2014_001	22	M	start_even_right	1	24	187	7	left	522.61	1	1	1
cipora2014_001	22	M	start_even_right	1	24	188	9	left	449.34	1	1	1
cipora2014_001	22	M	start_even_right	1	24	189	2	right	411.86	1	1	1
cipora2014_001	22	M	start_even_right	1	24	190	1	left	406.64	1	1	1
cipora2014_001	22	M	start_even_right	1	24	191	6	right	354.5	1	1	1
cipora2014_001	22	M	start_even_right	1	24	192	8	right	415.5	1	1	1
cipora2014_001	22	M	start_even_right	1	25	193	9	left	428.38	1	1	1
cipora2014_001	22	M	start_even_right	1	25	194	1	left	358.62	0	0	0
cipora2014_001	22	M	start_even_right	1	25	195	2	right	404.41	1	1	1
cipora2014_001	22	M	start_even_right	1	25	196	8	right	384.63	1	1	1
cipora2014_001	22	M	start_even_right	1	25	197	6	right	381.36	1	1	1
cipora2014_001	22	M	start_even_right	1	25	198	7	left	378.39	1	1	1
cipora2014_001	22	M	start_even_right	1	25	199	3	left	438.76	1	1	1
cipora2014_001	22	M	start_even_right	1	25	200	4	right	420.75	1	1	1
cipora2014_001	22	M	start_even_right	1	26	201	3	left	541.49	1	1	1
cipora2014_001	22	M	start_even_right	1	26	202	4	right	387.18	1	1	1
cipora2014_001	22	M	start_even_right	1	26	203	2	right	544.23	1	1	1
cipora2014_001	22	M	start_even_right	1	26	204	6	right	374.29	1	1	1
cipora2014_001	22	M	start_even_right	1	26	205	8	right	419.11	1	1	1
cipora2014_001	22	M	start_even_right	1	26	206	7	left	510.57	1	1	1
cipora2014_001	22	M	start_even_right	1	26	207	9	left	614.09	1	1	1
cipora2014_001	22	M	start_even_right	1	26	208	1	left	329.64	0	0	0
cipora2014_001	22	M	start_even_right	1	27	209	6	right	360.03	1	1	1
cipora2014_001	22	M	start_even_right	1	27	210	3	left	469.31	1	1	1
cipora2014_001	22	M	start_even_right	1	27	211	7	left	718.74	1	1	1
cipora2014_001	22	M	start_even_right	1	27	212	9	left	381.82	0	0	0
cipora2014_001	22	M	start_even_right	1	27	213	1	left	555.61	1	1	1
cipora2014_001	22	M	start_even_right	1	27	214	2	right	321.19	1	1	1
cipora2014_001	22	M	start_even_right	1	27	215	8	right	544.99	1	1	1
cipora2014_001	22	M	start_even_right	1	27	216	4	right	422.9	1	1	1
cipora2014_001	22	M	start_even_right	1	28	217	7	left	434.4	1	1	1
cipora2014_001	22	M	start_even_right	1	28	218	6	right	413.19	1	1	1
cipora2014_001	22	M	start_even_right	1	28	219	3	left	647.22	1	1	1
cipora2014_001	22	M	start_even_right	1	28	220	9	left	842.19	0	0	0
cipora2014_001	22	M	start_even_right	1	28	221	2	right	435.45	1	1	1
cipora2014_001	22	M	start_even_right	1	28	222	4	right	398.75	1	1	1
cipora2014_001	22	M	start_even_right	1	28	223	8	right	442.56	1	1	1
cipora2014_001	22	M	start_even_right	1	28	224	1	left	485.05	1	1	1
cipora2014_001	22	M	start_even_right	1	29	225	9	left	669.88	1	1	1
cipora2014_001	22	M	start_even_right	1	29	226	8	right	430.89	1	1	1
cipora2014_001	22	M	start_even_right	1	29	227	1	left	569.29	1	1	1
cipora2014_001	22	M	start_even_right	1	29	228	7	left	558.49	1	1	1
cipora2014_001	22	M	start_even_right	1	29	229	3	left	404.11	1	1	1
cipora2014_001	22	M	start_even_right	1	29	230	6	right	560.11	1	1	1
cipora2014_001	22	M	start_even_right	1	29	231	4	right	437.92	1	1	1
cipora2014_001	22	M	start_even_right	1	29	232	2	right	481.25	1	1	1
cipora2014_001	22	M	start_even_right	1	30	233	7	left	489.52	1	1	1
cipora2014_001	22	M	start_even_right	1	30	234	3	left	513.19	1	1	1
cipora2014_001	22	M	start_even_right	1	30	235	2	right	408.95	1	1	1
cipora2014_001	22	M	start_even_right	1	30	236	8	right	388.12	1	1	1
cipora2014_001	22	M	start_even_right	1	30	237	1	left	497.11	1	1	1
cipora2014_001	22	M	start_even_right	1	30	238	6	right	393.11	1	1	1
cipora2014_001	22	M	start_even_right	1	30	239	9	left	661.34	1	1	1
cipora2014_001	22	M	start_even_right	1	30	240	4	right	374.62	1	1	1
cipora2014_001	22	M	start_even_right	2	1	241	8	left	390.62	1	1	1
cipora2014_001	22	M	start_even_right	2	1	242	7	right	467.54	1	1	1
cipora2014_001	22	M	start_even_right	2	1	243	9	right	556.77	1	1	1
cipora2014_001	22	M	start_even_right	2	1	244	1	right	450.08	1	1	1
cipora2014_001	22	M	start_even_right	2	1	245	3	right	508.34	1	1	1
cipora2014_001	22	M	start_even_right	2	1	246	2	left	547.37	1	1	1
cipora2014_001	22	M	start_even_right	2	1	247	6	left	985.04	1	1	0
cipora2014_001	22	M	start_even_right	2	1	248	4	left	573.74	1	1	1
cipora2014_001	22	M	start_even_right	2	2	249	8	left	658.5	1	1	1
cipora2014_001	22	M	start_even_right	2	2	250	2	left	579.78	1	1	1
cipora2014_001	22	M	start_even_right	2	2	251	1	right	472.19	1	1	1
cipora2014_001	22	M	start_even_right	2	2	252	6	left	737.24	1	1	0
cipora2014_001	22	M	start_even_right	2	2	253	7	right	576.18	1	1	1
cipora2014_001	22	M	start_even_right	2	2	254	4	left	516.37	1	1	1
cipora2014_001	22	M	start_even_right	2	2	255	3	right	620.1	1	1	1
cipora2014_001	22	M	start_even_right	2	2	256	9	right	542.59	1	1	1
cipora2014_001	22	M	start_even_right	2	3	257	6	left	500.5	1	1	1
cipora2014_001	22	M	start_even_right	2	3	258	7	right	573.11	1	1	1
cipora2014_001	22	M	start_even_right	2	3	259	4	left	690.2	1	1	1
cipora2014_001	22	M	start_even_right	2	3	260	1	right	594.82	1	1	1
cipora2014_001	22	M	start_even_right	2	3	261	9	right	838.7	1	1	0
cipora2014_001	22	M	start_even_right	2	3	262	8	left	465.09	1	1	1
cipora2014_001	22	M	start_even_right	2	3	263	2	left	714.5	1	1	1
cipora2014_001	22	M	start_even_right	2	3	264	3	right	521.45	1	1	1
cipora2014_001	22	M	start_even_right	2	4	265	3	right	768.69	0	0	0
cipora2014_001	22	M	start_even_right	2	4	266	8	left	478.54	0	0	0
cipora2014_001	22	M	start_even_right	2	4	267	1	right	1335.32	0	0	0
cipora2014_001	22	M	start_even_right	2	4	268	2	left	1420.51	1	1	0
cipora2014_001	22	M	start_even_right	2	4	269	4	left	719.87	1	1	1
cipora2014_001	22	M	start_even_right	2	4	270	7	right	574.52	1	1	1
cipora2014_001	22	M	start_even_right	2	4	271	6	left	531.23	1	1	1
cipora2014_001	22	M	start_even_right	2	4	272	9	right	537.3	1	1	1
cipora2014_001	22	M	start_even_right	2	5	273	7	right	672.09	1	1	1
cipora2014_001	22	M	start_even_right	2	5	274	9	right	481.92	1	1	1
cipora2014_001	22	M	start_even_right	2	5	275	2	left	410.1	1	1	1
cipora2014_001	22	M	start_even_right	2	5	276	3	right	548.75	1	1	1
cipora2014_001	22	M	start_even_right	2	5	277	6	left	923.52	1	1	0
cipora2014_001	22	M	start_even_right	2	5	278	1	right	978.36	1	1	0
cipora2014_001	22	M	start_even_right	2	5	279	8	left	551.48	1	1	1
cipora2014_001	22	M	start_even_right	2	5	280	4	left	525.06	1	1	1
cipora2014_001	22	M	start_even_right	2	6	281	8	left	419.66	1	1	1
cipora2014_001	22	M	start_even_right	2	6	282	3	right	446.53	1	1	1
cipora2014_001	22	M	start_even_right	2	6	283	1	right	601.43	1	1	1
cipora2014_001	22	M	start_even_right	2	6	284	2	left	477.18	1	1	1
cipora2014_001	22	M	start_even_right	2	6	285	4	left	805.58	1	1	0
cipora2014_001	22	M	start_even_right	2	6	286	6	left	449.66	1	1	1
cipora2014_001	22	M	start_even_right	2	6	287	7	right	588.01	1	1	1
cipora2014_001	22	M	start_even_right	2	6	288	9	right	432.38	1	1	1
cipora2014_001	22	M	start_even_right	2	7	289	8	left	522.96	1	1	1
cipora2014_001	22	M	start_even_right	2	7	290	1	right	578.77	1	1	1
cipora2014_001	22	M	start_even_right	2	7	291	4	left	583.38	1	1	1
cipora2014_001	22	M	start_even_right	2	7	292	3	right	491.52	1	1	1
cipora2014_001	22	M	start_even_right	2	7	293	6	left	676.39	1	1	1
cipora2014_001	22	M	start_even_right	2	7	294	7	right	388.63	1	1	1
cipora2014_001	22	M	start_even_right	2	7	295	9	right	513.24	1	1	1
cipora2014_001	22	M	start_even_right	2	7	296	2	left	552.66	1	1	1
cipora2014_001	22	M	start_even_right	2	8	297	7	right	687.46	1	1	1
cipora2014_001	22	M	start_even_right	2	8	298	2	left	479.59	1	1	1
cipora2014_001	22	M	start_even_right	2	8	299	6	left	472.2	1	1	1
cipora2014_001	22	M	start_even_right	2	8	300	4	left	401.33	1	1	1
cipora2014_001	22	M	start_even_right	2	8	301	1	right	381.31	1	1	1
cipora2014_001	22	M	start_even_right	2	8	302	8	left	410.63	1	1	1
cipora2014_001	22	M	start_even_right	2	8	303	9	right	565.37	1	1	1
cipora2014_001	22	M	start_even_right	2	8	304	3	right	378.94	1	1	1
cipora2014_001	22	M	start_even_right	2	9	305	1	right	408.05	1	1	1
cipora2014_001	22	M	start_even_right	2	9	306	8	left	436.01	0	0	0
cipora2014_001	22	M	start_even_right	2	9	307	9	right	542.05	1	1	1
cipora2014_001	22	M	start_even_right	2	9	308	2	left	452.19	0	0	0
cipora2014_001	22	M	start_even_right	2	9	309	3	right	574.71	1	1	1
cipora2014_001	22	M	start_even_right	2	9	310	6	left	514.87	1	1	1
cipora2014_001	22	M	start_even_right	2	9	311	4	left	394.06	1	1	1
cipora2014_001	22	M	start_even_right	2	9	312	7	right	422.09	1	1	1
cipora2014_001	22	M	start_even_right	2	10	313	3	right	960.89	1	1	0
cipora2014_001	22	M	start_even_right	2	10	314	2	left	550.37	1	1	1
cipora2014_001	22	M	start_even_right	2	10	315	9	right	605.23	1	1	1
cipora2014_001	22	M	start_even_right	2	10	316	7	right	593.26	1	1	1
cipora2014_001	22	M	start_even_right	2	10	317	6	left	404.54	1	1	1
cipora2014_001	22	M	start_even_right	2	10	318	8	left	539.04	1	1	1
cipora2014_001	22	M	start_even_right	2	10	319	1	right	471.76	1	1	1
cipora2014_001	22	M	start_even_right	2	10	320	4	left	528.74	1	1	1
cipora2014_001	22	M	start_even_right	2	11	321	1	right	615.59	1	1	1
cipora2014_001	22	M	start_even_right	2	11	322	7	right	827.3	1	1	0
cipora2014_001	22	M	start_even_right	2	11	323	9	right	452.88	1	1	1
cipora2014_001	22	M	start_even_right	2	11	324	6	left	367.41	1	1	1
cipora2014_001	22	M	start_even_right	2	11	325	2	left	444.48	1	1	1
cipora2014_001	22	M	start_even_right	2	11	326	3	right	599.02	1	1	1
cipora2014_001	22	M	start_even_right	2	11	327	8	left	507.15	1	1	1
cipora2014_001	22	M	start_even_right	2	11	328	4	left	657.7	1	1	1
cipora2014_001	22	M	start_even_right	2	12	329	7	right	564.24	1	1	1
cipora2014_001	22	M	start_even_right	2	12	330	9	right	441.29	1	1	1
cipora2014_001	22	M	start_even_right	2	12	331	3	right	643.99	1	1	1
cipora2014_001	22	M	start_even_right	2	12	332	2	left	517.51	1	1	1
cipora2014_001	22	M	start_even_right	2	12	333	1	right	557.71	1	1	1
cipora2014_001	22	M	start_even_right	2	12	334	8	left	482.21	1	1	1
cipora2014_001	22	M	start_even_right	2	12	335	6	left	379.08	1	1	1
cipora2014_001	22	M	start_even_right	2	12	336	4	left	343.87	1	1	1
cipora2014_001	22	M	start_even_right	2	13	337	4	left	326.26	1	1	1
cipora2014_001	22	M	start_even_right	2	13	338	1	right	405.41	1	1	1
cipora2014_001	22	M	start_even_right	2	13	339	7	right	593.63	1	1	1
cipora2014_001	22	M	start_even_right	2	13	340	9	right	421.51	1	1	1
cipora2014_001	22	M	start_even_right	2	13	341	3	right	448.33	1	1	1
cipora2014_001	22	M	start_even_right	2	13	342	6	left	473.62	1	1	1
cipora2014_001	22	M	start_even_right	2	13	343	2	left	612.54	1	1	1
cipora2014_001	22	M	start_even_right	2	13	344	8	left	407.01	1	1	1
cipora2014_001	22	M	start_even_right	2	14	345	7	right	595.15	1	1	1
cipora2014_001	22	M	start_even_right	2	14	346	3	right	470.88	1	1	1
cipora2014_001	22	M	start_even_right	2	14	347	6	left	384.38	1	1	1
cipora2014_001	22	M	start_even_right	2	14	348	1	right	476.93	1	1	1
cipora2014_001	22	M	start_even_right	2	14	349	4	left	501.69	1	1	1
cipora2014_001	22	M	start_even_right	2	14	350	2	left	605.4	1	1	1
cipora2014_001	22	M	start_even_right	2	14	351	8	left	513.23	1	1	1
cipora2014_001	22	M	start_even_right	2	14	352	9	right	616.83	1	1	1
cipora2014_001	22	M	start_even_right	2	15	353	2	left	508.29	1	1	1
cipora2014_001	22	M	start_even_right	2	15	354	8	left	436.25	1	1	1
cipora2014_001	22	M	start_even_right	2	15	355	3	right	447.34	1	1	1
cipora2014_001	22	M	start_even_right	2	15	356	1	right	505.63	1	1	1
cipora2014_001	22	M	start_even_right	2	15	357	9	right	592.76	1	1	1
cipora2014_001	22	M	start_even_right	2	15	358	6	left	517.12	1	1	1
cipora2014_001	22	M	start_even_right	2	15	359	7	right	379.38	1	1	1
cipora2014_001	22	M	start_even_right	2	15	360	4	left	425.48	1	1	1
cipora2014_001	22	M	start_even_right	2	16	361	7	right	435.83	1	1	1
cipora2014_001	22	M	start_even_right	2	16	362	6	left	366.82	1	1	1
cipora2014_001	22	M	start_even_right	2	16	363	3	right	396.1	1	1	1
cipora2014_001	22	M	start_even_right	2	16	364	2	left	392.02	1	1	1
cipora2014_001	22	M	start_even_right	2	16	365	9	right	404.45	1	1	1
cipora2014_001	22	M	start_even_right	2	16	366	4	left	384.69	1	1	1
cipora2014_001	22	M	start_even_right	2	16	367	8	left	413.58	0	0	0
cipora2014_001	22	M	start_even_right	2	16	368	1	right	841.18	1	1	0
cipora2014_001	22	M	start_even_right	2	17	369	2	left	354.34	1	1	1
cipora2014_001	22	M	start_even_right	2	17	370	1	right	416.72	1	1	1
cipora2014_001	22	M	start_even_right	2	17	371	4	left	412.45	1	1	1
cipora2014_001	22	M	start_even_right	2	17	372	8	left	376.08	0	0	0
cipora2014_001	22	M	start_even_right	2	17	373	7	right	628.83	1	1	1
cipora2014_001	22	M	start_even_right	2	17	374	6	left	471.2	1	1	1
cipora2014_001	22	M	start_even_right	2	17	375	3	right	608.29	1	1	1
cipora2014_001	22	M	start_even_right	2	17	376	9	right	632.34	1	1	1
cipora2014_001	22	M	start_even_right	2	18	377	6	left	663.18	1	1	1
cipora2014_001	22	M	start_even_right	2	18	378	3	right	808.15	1	1	0
cipora2014_001	22	M	start_even_right	2	18	379	8	left	499.11	1	1	1
cipora2014_001	22	M	start_even_right	2	18	380	2	left	491.71	1	1	1
cipora2014_001	22	M	start_even_right	2	18	381	4	left	435.32	1	1	1
cipora2014_001	22	M	start_even_right	2	18	382	1	right	429.88	1	1	1
cipora2014_001	22	M	start_even_right	2	18	383	9	right	441.28	1	1	1
cipora2014_001	22	M	start_even_right	2	18	384	7	right	435.99	1	1	1
cipora2014_001	22	M	start_even_right	2	19	385	7	right	382.66	1	1	1
cipora2014_001	22	M	start_even_right	2	19	386	9	right	410.96	1	1	1
cipora2014_001	22	M	start_even_right	2	19	387	6	left	358.86	1	1	1
cipora2014_001	22	M	start_even_right	2	19	388	8	left	435.89	1	1	1
cipora2014_001	22	M	start_even_right	2	19	389	4	left	399.14	1	1	1
cipora2014_001	22	M	start_even_right	2	19	390	1	right	475.23	1	1	1
cipora2014_001	22	M	start_even_right	2	19	391	3	right	452.11	1	1	1
cipora2014_001	22	M	start_even_right	2	19	392	2	left	429.93	1	1	1
cipora2014_001	22	M	start_even_right	2	20	393	1	right	792.99	1	1	0
cipora2014_001	22	M	start_even_right	2	20	394	6	left	499.57	1	1	1
cipora2014_001	22	M	start_even_right	2	20	395	2	left	444.33	1	1	1
cipora2014_001	22	M	start_even_right	2	20	396	7	right	582.3	1	1	1
cipora2014_001	22	M	start_even_right	2	20	397	8	left	442.67	1	1	1
cipora2014_001	22	M	start_even_right	2	20	398	4	left	565.01	1	1	1
cipora2014_001	22	M	start_even_right	2	20	399	3	right	538.74	1	1	1
cipora2014_001	22	M	start_even_right	2	20	400	9	right	544.62	1	1	1
cipora2014_001	22	M	start_even_right	2	21	401	7	right	502.66	1	1	1
cipora2014_001	22	M	start_even_right	2	21	402	6	left	479.33	1	1	1
cipora2014_001	22	M	start_even_right	2	21	403	3	right	631.91	1	1	1
cipora2014_001	22	M	start_even_right	2	21	404	4	left	506.7	1	1	1
cipora2014_001	22	M	start_even_right	2	21	405	1	right	513.48	1	1	1
cipora2014_001	22	M	start_even_right	2	21	406	2	left	552.84	1	1	1
cipora2014_001	22	M	start_even_right	2	21	407	8	left	575.38	1	1	1
cipora2014_001	22	M	start_even_right	2	21	408	9	right	515.39	1	1	1
cipora2014_001	22	M	start_even_right	2	22	409	2	left	506.9	1	1	1
cipora2014_001	22	M	start_even_right	2	22	410	4	left	385.92	1	1	1
cipora2014_001	22	M	start_even_right	2	22	411	3	right	527.37	1	1	1
cipora2014_001	22	M	start_even_right	2	22	412	1	right	405.37	1	1	1
cipora2014_001	22	M	start_even_right	2	22	413	8	left	417.81	1	1	1
cipora2014_001	22	M	start_even_right	2	22	414	7	right	653.78	1	1	1
cipora2014_001	22	M	start_even_right	2	22	415	9	right	559.53	1	1	1
cipora2014_001	22	M	start_even_right	2	22	416	6	left	467.34	1	1	1
cipora2014_001	22	M	start_even_right	2	23	417	8	left	494.4	1	1	1
cipora2014_001	22	M	start_even_right	2	23	418	3	right	565.77	1	1	1
cipora2014_001	22	M	start_even_right	2	23	419	4	left	475	1	1	1
cipora2014_001	22	M	start_even_right	2	23	420	7	right	484.09	1	1	1
cipora2014_001	22	M	start_even_right	2	23	421	1	right	541.04	1	1	1
cipora2014_001	22	M	start_even_right	2	23	422	6	left	595.8	1	1	1
cipora2014_001	22	M	start_even_right	2	23	423	2	left	551.61	1	1	1
cipora2014_001	22	M	start_even_right	2	23	424	9	right	573.07	1	1	1
cipora2014_001	22	M	start_even_right	2	24	425	9	right	466.38	1	1	1
cipora2014_001	22	M	start_even_right	2	24	426	3	right	540.14	1	1	1
cipora2014_001	22	M	start_even_right	2	24	427	8	left	562.66	1	1	1
cipora2014_001	22	M	start_even_right	2	24	428	2	left	536.22	1	1	1
cipora2014_001	22	M	start_even_right	2	24	429	6	left	526.6	1	1	1
cipora2014_001	22	M	start_even_right	2	24	430	7	right	405.5	1	1	1
cipora2014_001	22	M	start_even_right	2	24	431	4	left	481.26	1	1	1
cipora2014_001	22	M	start_even_right	2	24	432	1	right	538.35	1	1	1
cipora2014_001	22	M	start_even_right	2	25	433	8	left	593.14	1	1	1
cipora2014_001	22	M	start_even_right	2	25	434	1	right	501.09	1	1	1
cipora2014_001	22	M	start_even_right	2	25	435	7	right	492.49	1	1	1
cipora2014_001	22	M	start_even_right	2	25	436	4	left	404.79	1	1	1
cipora2014_001	22	M	start_even_right	2	25	437	3	right	528.59	1	1	1
cipora2014_001	22	M	start_even_right	2	25	438	2	left	407.52	1	1	1
cipora2014_001	22	M	start_even_right	2	25	439	6	left	483.28	1	1	1
cipora2014_001	22	M	start_even_right	2	25	440	9	right	380.02	1	1	1
cipora2014_001	22	M	start_even_right	2	26	441	4	left	360.48	1	1	1
cipora2014_001	22	M	start_even_right	2	26	442	3	right	389.69	1	1	1
cipora2014_001	22	M	start_even_right	2	26	443	1	right	577.87	1	1	1
cipora2014_001	22	M	start_even_right	2	26	444	2	left	454.64	1	1	1
cipora2014_001	22	M	start_even_right	2	26	445	8	left	480.32	1	1	1
cipora2014_001	22	M	start_even_right	2	26	446	6	left	425.15	1	1	1
cipora2014_001	22	M	start_even_right	2	26	447	7	right	308.52	0	0	0
cipora2014_001	22	M	start_even_right	2	26	448	9	right	452.2	1	1	1
cipora2014_001	22	M	start_even_right	2	27	449	3	right	525.91	1	1	1
cipora2014_001	22	M	start_even_right	2	27	450	1	right	436.14	1	1	1
cipora2014_001	22	M	start_even_right	2	27	451	8	left	382.85	1	1	1
cipora2014_001	22	M	start_even_right	2	27	452	7	right	412.09	1	1	1
cipora2014_001	22	M	start_even_right	2	27	453	4	left	440.07	1	1	1
cipora2014_001	22	M	start_even_right	2	27	454	2	left	530.31	1	1	1
cipora2014_001	22	M	start_even_right	2	27	455	6	left	457.25	1	1	1
cipora2014_001	22	M	start_even_right	2	27	456	9	right	786.83	1	1	0
cipora2014_001	22	M	start_even_right	2	28	457	6	left	398.76	1	1	1
cipora2014_001	22	M	start_even_right	2	28	458	4	left	459.23	1	1	1
cipora2014_001	22	M	start_even_right	2	28	459	9	right	436.19	1	1	1
cipora2014_001	22	M	start_even_right	2	28	460	7	right	527.55	1	1	1
cipora2014_001	22	M	start_even_right	2	28	461	3	right	342.09	0	0	0
cipora2014_001	22	M	start_even_right	2	28	462	2	left	595.77	1	1	1
cipora2014_001	22	M	start_even_right	2	28	463	1	right	375.97	1	1	1
cipora2014_001	22	M	start_even_right	2	28	464	8	left	436.3	1	1	1
cipora2014_001	22	M	start_even_right	2	29	465	2	left	447.44	1	1	1
cipora2014_001	22	M	start_even_right	2	29	466	1	right	425.65	1	1	1
cipora2014_001	22	M	start_even_right	2	29	467	9	right	500.21	1	1	1
cipora2014_001	22	M	start_even_right	2	29	468	6	left	412.63	1	1	1
cipora2014_001	22	M	start_even_right	2	29	469	7	right	455.39	1	1	1
cipora2014_001	22	M	start_even_right	2	29	470	8	left	465.41	1	1	1
cipora2014_001	22	M	start_even_right	2	29	471	4	left	411.31	1	1	1
cipora2014_001	22	M	start_even_right	2	29	472	3	right	487.12	1	1	1
cipora2014_001	22	M	start_even_right	2	30	473	2	left	383.95	1	1	1
cipora2014_001	22	M	start_even_right	2	30	474	7	right	444.35	1	1	1
cipora2014_001	22	M	start_even_right	2	30	475	3	right	326.6	0	0	0
cipora2014_001	22	M	start_even_right	2	30	476	1	right	837.38	0	0	0
cipora2014_001	22	M	start_even_right	2	30	477	9	right	591.83	1	1	1
cipora2014_001	22	M	start_even_right	2	30	478	8	left	483.02	1	1	1
cipora2014_001	22	M	start_even_right	2	30	479	6	left	442.5	0	0	0
cipora2014_001	22	M	start_even_right	2	30	480	4	left	981.94	1	1	0
cipora2014_006	19	F	start_even_right	1	1	1	3	left	521.34	1	1	1
cipora2014_006	19	F	start_even_right	1	1	2	9	left	529.19	0	0	0
cipora2014_006	19	F	start_even_right	1	1	3	8	right	567.46	1	1	1
cipora2014_006	19	F	start_even_right	1	1	4	6	right	748.82	1	1	1
cipora2014_006	19	F	start_even_right	1	1	5	7	left	570.31	1	1	1
cipora2014_006	19	F	start_even_right	1	1	6	2	right	591.68	1	1	1
cipora2014_006	19	F	start_even_right	1	1	7	1	left	531.66	1	1	1
cipora2014_006	19	F	start_even_right	1	1	8	4	right	522.22	1	1	1
cipora2014_006	19	F	start_even_right	1	2	9	2	right	818.22	1	1	1
cipora2014_006	19	F	start_even_right	1	2	10	8	right	620.63	1	1	1
cipora2014_006	19	F	start_even_right	1	2	11	3	left	431.7	1	1	1
cipora2014_006	19	F	start_even_right	1	2	12	1	left	538.81	1	1	1
cipora2014_006	19	F	start_even_right	1	2	13	4	right	481.05	1	1	1
cipora2014_006	19	F	start_even_right	1	2	14	7	left	538.19	1	1	1
cipora2014_006	19	F	start_even_right	1	2	15	9	left	577.32	0	0	0
cipora2014_006	19	F	start_even_right	1	2	16	6	right	1397.42	1	1	1
cipora2014_006	19	F	start_even_right	1	3	17	2	right	985.17	1	1	1
cipora2014_006	19	F	start_even_right	1	3	18	7	left	637.34	1	1	1
cipora2014_006	19	F	start_even_right	1	3	19	1	left	831.07	1	1	1
cipora2014_006	19	F	start_even_right	1	3	20	8	right	745.87	1	1	1
cipora2014_006	19	F	start_even_right	1	3	21	4	right	919.71	1	1	1
cipora2014_006	19	F	start_even_right	1	3	22	6	right	974.6	1	1	1
cipora2014_006	19	F	start_even_right	1	3	23	3	left	579.83	1	1	1
cipora2014_006	19	F	start_even_right	1	3	24	9	left	632.32	1	1	1
cipora2014_006	19	F	start_even_right	1	4	25	2	right	810.82	1	1	1
cipora2014_006	19	F	start_even_right	1	4	26	6	right	709.89	1	1	1
cipora2014_006	19	F	start_even_right	1	4	27	3	left	580.94	1	1	1
cipora2014_006	19	F	start_even_right	1	4	28	4	right	793.87	1	1	1
cipora2014_006	19	F	start_even_right	1	4	29	7	left	789.71	1	1	1
cipora2014_006	19	F	start_even_right	1	4	30	8	right	737.74	1	1	1
cipora2014_006	19	F	start_even_right	1	4	31	9	left	800.17	1	1	1
cipora2014_006	19	F	start_even_right	1	4	32	1	left	651.69	1	1	1
cipora2014_006	19	F	start_even_right	1	5	33	1	left	669.73	1	1	1
cipora2014_006	19	F	start_even_right	1	5	34	3	left	671.1	1	1	1
cipora2014_006	19	F	start_even_right	1	5	35	7	left	976.15	1	1	1
cipora2014_006	19	F	start_even_right	1	5	36	4	right	756.34	1	1	1
cipora2014_006	19	F	start_even_right	1	5	37	8	right	546.25	1	1	1
cipora2014_006	19	F	start_even_right	1	5	38	9	left	616.46	1	1	1
cipora2014_006	19	F	start_even_right	1	5	39	2	right	747.06	1	1	1
cipora2014_006	19	F	start_even_right	1	5	40	6	right	761.82	1	1	1
cipora2014_006	19	F	start_even_right	1	6	41	4	right	758.8	1	1	1
cipora2014_006	19	F	start_even_right	1	6	42	6	right	851.51	1	1	1
cipora2014_006	19	F	start_even_right	1	6	43	1	left	493.58	1	1	1
cipora2014_006	19	F	start_even_right	1	6	44	3	left	661.72	1	1	1
cipora2014_006	19	F	start_even_right	1	6	45	7	left	550.82	1	1	1
cipora2014_006	19	F	start_even_right	1	6	46	2	right	732.34	1	1	1
cipora2014_006	19	F	start_even_right	1	6	47	8	right	571.42	1	1	1
cipora2014_006	19	F	start_even_right	1	6	48	9	left	912.17	1	1	1
cipora2014_006	19	F	start_even_right	1	7	49	1	left	535.37	1	1	1
cipora2014_006	19	F	start_even_right	1	7	50	9	left	910.42	1	1	1
cipora2014_006	19	F	start_even_right	1	7	51	4	right	612.62	1	1	1
cipora2014_006	19	F	start_even_right	1	7	52	3	left	936.63	1	1	1
cipora2014_006	19	F	start_even_right	1	7	53	8	right	846.75	1	1	1
cipora2014_006	19	F	start_even_right	1	7	54	6	right	680.25	1	1	1
cipora2014_006	19	F	start_even_right	1	7	55	2	right	696.17	1	1	1
cipora2014_006	19	F	start_even_right	1	7	56	7	left	631.91	1	1	1
cipora2014_006	19	F	start_even_right	1	8	57	4	right	571.12	1	1	1
cipora2014_006	19	F	start_even_right	1	8	58	1	left	592.53	1	1	1
cipora2014_006	19	F	start_even_right	1	8	59	7	left	1172.37	1	1	1
cipora2014_006	19	F	start_even_right	1	8	60	6	right	721.11	1	1	1
cipora2014_006	19	F	start_even_right	1	8	61	8	right	544.51	1	1	1
cipora2014_006	19	F	start_even_right	1	8	62	9	left	741.75	1	1	1
cipora2014_006	19	F	start_even_right	1	8	63	2	right	1651.93	1	1	0
cipora2014_006	19	F	start_even_right	1	8	64	3	left	844.83	1	1	1
cipora2014_006	19	F	start_even_right	1	9	65	3	left	710.54	1	1	1
cipora2014_006	19	F	start_even_right	1	9	66	8	right	565.98	1	1	1
cipora2014_006	19	F	start_even_right	1	9	67	6	right	954.76	0	0	0
cipora2014_006	19	F	start_even_right	1	9	68	7	left	864.73	1	1	1
cipora2014_006	19	F	start_even_right	1	9	69	1	left	601.66	1	1	1
cipora2014_006	19	F	start_even_right	1	9	70	9	left	1101.4	1	1	1
cipora2014_006	19	F	start_even_right	1	9	71	2	right	892.67	1	1	1
cipora2014_006	19	F	start_even_right	1	9	72	4	right	724.96	1	1	1
cipora2014_006	19	F	start_even_right	1	10	73	7	left	755.3	1	1	1
cipora2014_006	19	F	start_even_right	1	10	74	4	right	705.55	1	1	1
cipora2014_006	19	F	start_even_right	1	10	75	1	left	608.01	1	1	1
cipora2014_006	19	F	start_even_right	1	10	76	2	right	916.15	1	1	1
cipora2014_006	19	F	start_even_right	1	10	77	8	right	635.25	1	1	1
cipora2014_006	19	F	start_even_right	1	10	78	3	left	605.52	1	1	1
cipora2014_006	19	F	start_even_right	1	10	79	9	left	881.44	1	1	1
cipora2014_006	19	F	start_even_right	1	10	80	6	right	1305.82	1	1	1
cipora2014_006	19	F	start_even_right	1	11	81	6	right	529.66	1	1	1
cipora2014_006	19	F	start_even_right	1	11	82	7	left	775.86	1	1	1
cipora2014_006	19	F	start_even_right	1	11	83	1	left	1220.04	1	1	1
cipora2014_006	19	F	start_even_right	1	11	84	8	right	798.62	1	1	1
cipora2014_006	19	F	start_even_right	1	11	85	3	left	618.89	1	1	1
cipora2014_006	19	F	start_even_right	1	11	86	4	right	685.94	1	1	1
cipora2014_006	19	F	start_even_right	1	11	87	9	left	733.91	1	1	1
cipora2014_006	19	F	start_even_right	1	11	88	2	right	691.16	1	1	1
cipora2014_006	19	F	start_even_right	1	12	89	6	right	812.48	1	1	1
cipora2014_006	19	F	start_even_right	1	12	90	4	right	983.91	1	1	1
cipora2014_006	19	F	start_even_right	1	12	91	3	left	764.01	1	1	1
cipora2014_006	19	F	start_even_right	1	12	92	1	left	585.45	1	1	1
cipora2014_006	19	F	start_even_right	1	12	93	2	right	797.95	1	1	1
cipora2014_006	19	F	start_even_right	1	12	94	9	left	681.49	1	1	1
cipora2014_006	19	F	start_even_right	1	12	95	7	left	1114.49	1	1	1
cipora2014_006	19	F	start_even_right	1	12	96	8	right	712.4	1	1	1
cipora2014_006	19	F	start_even_right	1	13	97	2	right	856.11	1	1	1
cipora2014_006	19	F	start_even_right	1	13	98	7	left	673.98	1	1	1
cipora2014_006	19	F	start_even_right	1	13	99	4	right	978.02	1	1	1
cipora2014_006	19	F	start_even_right	1	13	100	6	right	662.42	1	1	1
cipora2014_006	19	F	start_even_right	1	13	101	3	left	711.66	1	1	1
cipora2014_006	19	F	start_even_right	1	13	102	9	left	823.14	1	1	1
cipora2014_006	19	F	start_even_right	1	13	103	1	left	882.3	1	1	1
cipora2014_006	19	F	start_even_right	1	13	104	8	right	1146.32	1	1	1
cipora2014_006	19	F	start_even_right	1	14	105	7	left	679.52	1	1	1
cipora2014_006	19	F	start_even_right	1	14	106	2	right	855.68	1	1	1
cipora2014_006	19	F	start_even_right	1	14	107	3	left	545.64	1	1	1
cipora2014_006	19	F	start_even_right	1	14	108	1	left	1159.89	1	1	1
cipora2014_006	19	F	start_even_right	1	14	109	6	right	693.04	1	1	1
cipora2014_006	19	F	start_even_right	1	14	110	8	right	660.07	1	1	1
cipora2014_006	19	F	start_even_right	1	14	111	4	right	949.39	1	1	1
cipora2014_006	19	F	start_even_right	1	14	112	9	left	651.69	1	1	1
cipora2014_006	19	F	start_even_right	1	15	113	6	right	908.99	1	1	1
cipora2014_006	19	F	start_even_right	1	15	114	4	right	660.13	1	1	1
cipora2014_006	19	F	start_even_right	1	15	115	8	right	501.36	1	1	1
cipora2014_006	19	F	start_even_right	1	15	116	9	left	749.49	1	1	1
cipora2014_006	19	F	start_even_right	1	15	117	2	right	618.76	1	1	1
cipora2014_006	19	F	start_even_right	1	15	118	7	left	1406.52	1	1	1
cipora2014_006	19	F	start_even_right	1	15	119	3	left	913.07	1	1	1
cipora2014_006	19	F	start_even_right	1	15	120	1	left	792.21	1	1	1
cipora2014_006	19	F	start_even_right	1	16	121	9	left	692.36	1	1	1
cipora2014_006	19	F	start_even_right	1	16	122	3	left	643.76	1	1	1
cipora2014_006	19	F	start_even_right	1	16	123	1	left	549.37	1	1	1
cipora2014_006	19	F	start_even_right	1	16	124	4	right	556.3	1	1	1
cipora2014_006	19	F	start_even_right	1	16	125	6	right	930.27	1	1	1
cipora2014_006	19	F	start_even_right	1	16	126	2	right	1079.82	1	1	1
cipora2014_006	19	F	start_even_right	1	16	127	8	right	456.22	1	1	1
cipora2014_006	19	F	start_even_right	1	16	128	7	left	642.28	1	1	1
cipora2014_006	19	F	start_even_right	1	17	129	7	left	484.51	1	1	1
cipora2014_006	19	F	start_even_right	1	17	130	4	right	845.16	1	1	1
cipora2014_006	19	F	start_even_right	1	17	131	6	right	566.15	1	1	1
cipora2014_006	19	F	start_even_right	1	17	132	3	left	604.33	1	1	1
cipora2014_006	19	F	start_even_right	1	17	133	9	left	623.63	1	1	1
cipora2014_006	19	F	start_even_right	1	17	134	2	right	962.92	1	1	1
cipora2014_006	19	F	start_even_right	1	17	135	1	left	1111.4	1	1	1
cipora2014_006	19	F	start_even_right	1	17	136	8	right	710.21	1	1	1
cipora2014_006	19	F	start_even_right	1	18	137	4	right	596.9	1	1	1
cipora2014_006	19	F	start_even_right	1	18	138	3	left	617.15	1	1	1
cipora2014_006	19	F	start_even_right	1	18	139	6	right	892.41	1	1	1
cipora2014_006	19	F	start_even_right	1	18	140	1	left	788.16	1	1	1
cipora2014_006	19	F	start_even_right	1	18	141	7	left	657.14	1	1	1
cipora2014_006	19	F	start_even_right	1	18	142	2	right	1330.35	0	0	0
cipora2014_006	19	F	start_even_right	1	18	143	8	right	1000.31	1	1	1
cipora2014_006	19	F	start_even_right	1	18	144	9	left	1244.39	1	1	1
cipora2014_006	19	F	start_even_right	1	19	145	2	right	1381.43	1	1	1
cipora2014_006	19	F	start_even_right	1	19	146	8	right	1049.29	1	1	1
cipora2014_006	19	F	start_even_right	1	19	147	6	right	1178.87	1	1	1
cipora2014_006	19	F	start_even_right	1	19	148	1	left	1462.9	1	1	1
cipora2014_006	19	F	start_even_right	1	19	149	3	left	1062.95	1	1	1
cipora2014_006	19	F	start_even_right	1	19	150	4	right	876.83	1	1	1
cipora2014_006	19	F	start_even_right	1	19	151	9	left	1152.56	1	1	1
cipora2014_006	19	F	start_even_right	1	19	152	7	left	1229.71	1	1	1
cipora2014_006	19	F	start_even_right	1	20	153	7	left	583.62	1	1	1
cipora2014_006	19	F	start_even_right	1	20	154	1	left	731.88	1	1	1
cipora2014_006	19	F	start_even_right	1	20	155	2	right	891.37	1	1	1
cipora2014_006	19	F	start_even_right	1	20	156	3	left	786.12	1	1	1
cipora2014_006	19	F	start_even_right	1	20	157	9	left	910.94	1	1	1
cipora2014_006	19	F	start_even_right	1	20	158	6	right	1381.65	1	1	1
cipora2014_006	19	F	start_even_right	1	20	159	4	right	650.12	1	1	1
cipora2014_006	19	F	start_even_right	1	20	160	8	right	1307.91	1	1	1
cipora2014_006	19	F	start_even_right	1	21	161	3	left	562.99	1	1	1
cipora2014_006	19	F	start_even_right	1	21	162	4	right	1096.24	1	1	1
cipora2014_006	19	F	start_even_right	1	21	163	1	left	951.9	1	1	1
cipora2014_006	19	F	start_even_right	1	21	164	6	right	700.91	1	1	1
cipora2014_006	19	F	start_even_right	1	21	165	2	right	1212.88	1	1	1
cipora2014_006	19	F	start_even_right	1	21	166	7	left	615.75	1	1	1
cipora2014_006	19	F	start_even_right	1	21	167	8	right	1018.89	1	1	1
cipora2014_006	19	F	start_even_right	1	21	168	9	left	958.01	1	1	1
cipora2014_006	19	F	start_even_right	1	22	169	2	right	1090.75	1	1	1
cipora2014_006	19	F	start_even_right	1	22	170	4	right	850.79	1	1	1
cipora2014_006	19	F	start_even_right	1	22	171	7	left	700.94	1	1	1
cipora2014_006	19	F	start_even_right	1	22	172	8	right	828.13	1	1	1
cipora2014_006	19	F	start_even_right	1	22	173	6	right	838.49	1	1	1
cipora2014_006	19	F	start_even_right	1	22	174	3	left	672.99	1	1	1
cipora2014_006	19	F	start_even_right	1	22	175	1	left	818.94	1	1	1
cipora2014_006	19	F	start_even_right	1	22	176	9	left	718.04	1	1	1
cipora2014_006	19	F	start_even_right	1	23	177	2	right	876.38	1	1	1
cipora2014_006	19	F	start_even_right	1	23	178	6	right	1109.14	1	1	1
cipora2014_006	19	F	start_even_right	1	23	179	3	left	675.78	1	1	1
cipora2014_006	19	F	start_even_right	1	23	180	1	left	660.41	1	1	1
cipora2014_006	19	F	start_even_right	1	23	181	7	left	821.94	1	1	1
cipora2014_006	19	F	start_even_right	1	23	182	9	left	1088.22	1	1	1
cipora2014_006	19	F	start_even_right	1	23	183	8	right	592.42	1	1	1
cipora2014_006	19	F	start_even_right	1	23	184	4	right	596.94	1	1	1
cipora2014_006	19	F	start_even_right	1	24	185	2	right	585.16	1	1	1
cipora2014_006	19	F	start_even_right	1	24	186	9	left	685.52	1	1	1
cipora2014_006	19	F	start_even_right	1	24	187	4	right	573.5	1	1	1
cipora2014_006	19	F	start_even_right	1	24	188	1	left	802.86	1	1	1
cipora2014_006	19	F	start_even_right	1	24	189	8	right	797.59	1	1	1
cipora2014_006	19	F	start_even_right	1	24	190	7	left	602.18	1	1	1
cipora2014_006	19	F	start_even_right	1	24	191	3	left	718.14	1	1	1
cipora2014_006	19	F	start_even_right	1	24	192	6	right	765.06	1	1	1
cipora2014_006	19	F	start_even_right	1	25	193	2	right	874.46	1	1	1
cipora2014_006	19	F	start_even_right	1	25	194	9	left	803.57	1	1	1
cipora2014_006	19	F	start_even_right	1	25	195	4	right	1006.46	1	1	1
cipora2014_006	19	F	start_even_right	1	25	196	7	left	578.47	1	1	1
cipora2014_006	19	F	start_even_right	1	25	197	1	left	823.41	1	1	1
cipora2014_006	19	F	start_even_right	1	25	198	6	right	753.71	1	1	1
cipora2014_006	19	F	start_even_right	1	25	199	3	left	767.18	1	1	1
cipora2014_006	19	F	start_even_right	1	25	200	8	right	844.41	1	1	1
cipora2014_006	19	F	start_even_right	1	26	201	9	left	1286.31	1	1	1
cipora2014_006	19	F	start_even_right	1	26	202	3	left	941.92	1	1	1
cipora2014_006	19	F	start_even_right	1	26	203	4	right	628.53	1	1	1
cipora2014_006	19	F	start_even_right	1	26	204	8	right	742.38	1	1	1
cipora2014_006	19	F	start_even_right	1	26	205	7	left	1188.67	1	1	1
cipora2014_006	19	F	start_even_right	1	26	206	1	left	1184.52	1	1	1
cipora2014_006	19	F	start_even_right	1	26	207	2	right	781	1	1	1
cipora2014_006	19	F	start_even_right	1	26	208	6	right	601.3	1	1	1
cipora2014_006	19	F	start_even_right	1	27	209	3	left	637.16	1	1	1
cipora2014_006	19	F	start_even_right	1	27	210	1	left	1247.94	1	1	1
cipora2014_006	19	F	start_even_right	1	27	211	8	right	1080.47	1	1	1
cipora2014_006	19	F	start_even_right	1	27	212	4	right	1321.19	1	1	1
cipora2014_006	19	F	start_even_right	1	27	213	9	left	926.1	1	1	1
cipora2014_006	19	F	start_even_right	1	27	214	2	right	629.97	1	1	1
cipora2014_006	19	F	start_even_right	1	27	215	7	left	936.36	1	1	1
cipora2014_006	19	F	start_even_right	1	27	216	6	right	1102.4	1	1	1
cipora2014_006	19	F	start_even_right	1	28	217	7	left	1182.58	1	1	1
cipora2014_006	19	F	start_even_right	1	28	218	1	left	842.73	1	1	1
cipora2014_006	19	F	start_even_right	1	28	219	8	right	899.77	1	1	1
cipora2014_006	19	F	start_even_right	1	28	220	9	left	940.17	1	1	1
cipora2014_006	19	F	start_even_right	1	28	221	4	right	753.62	1	1	1
cipora2014_006	19	F	start_even_right	1	28	222	3	left	767.14	1	1	1
cipora2014_006	19	F	start_even_right	1	28	223	2	right	1580.63	1	1	0
cipora2014_006	19	F	start_even_right	1	28	224	6	right	1016.03	1	1	1
cipora2014_006	19	F	start_even_right	1	29	225	7	left	634.94	1	1	1
cipora2014_006	19	F	start_even_right	1	29	226	9	left	1213.55	1	1	1
cipora2014_006	19	F	start_even_right	1	29	227	2	right	1464.27	1	1	1
cipora2014_006	19	F	start_even_right	1	29	228	8	right	696.08	1	1	1
cipora2014_006	19	F	start_even_right	1	29	229	4	right	920.08	1	1	1
cipora2014_006	19	F	start_even_right	1	29	230	3	left	735.67	1	1	1
cipora2014_006	19	F	start_even_right	1	29	231	6	right	669.41	1	1	1
cipora2014_006	19	F	start_even_right	1	29	232	1	left	735.18	1	1	1
cipora2014_006	19	F	start_even_right	1	30	233	9	left	893.44	1	1	1
cipora2014_006	19	F	start_even_right	1	30	234	7	left	596.68	1	1	1
cipora2014_006	19	F	start_even_right	1	30	235	8	right	552.63	1	1	1
cipora2014_006	19	F	start_even_right	1	30	236	2	right	1006.71	1	1	1
cipora2014_006	19	F	start_even_right	1	30	237	1	left	674.45	1	1	1
cipora2014_006	19	F	start_even_right	1	30	238	3	left	1411.09	0	0	0
cipora2014_006	19	F	start_even_right	1	30	239	4	right	869.74	1	1	1
cipora2014_006	19	F	start_even_right	1	30	240	6	right	638.75	1	1	1
cipora2014_006	19	F	start_even_right	2	1	241	7	right	631.8	1	1	1
cipora2014_006	19	F	start_even_right	2	1	242	6	left	810.29	1	1	1
cipora2014_006	19	F	start_even_right	2	1	243	3	right	693.76	1	1	1
cipora2014_006	19	F	start_even_right	2	1	244	8	left	694	1	1	1
cipora2014_006	19	F	start_even_right	2	1	245	2	left	1605.34	1	1	0
cipora2014_006	19	F	start_even_right	2	1	246	1	right	640.23	1	1	1
cipora2014_006	19	F	start_even_right	2	1	247	4	left	754.07	1	1	1
cipora2014_006	19	F	start_even_right	2	1	248	9	right	912.27	1	1	1
cipora2014_006	19	F	start_even_right	2	2	249	3	right	694.69	1	1	1
cipora2014_006	19	F	start_even_right	2	2	250	1	right	614.63	1	1	1
cipora2014_006	19	F	start_even_right	2	2	251	9	right	633.83	1	1	1
cipora2014_006	19	F	start_even_right	2	2	252	2	left	700.99	1	1	1
cipora2014_006	19	F	start_even_right	2	2	253	6	left	892.63	1	1	1
cipora2014_006	19	F	start_even_right	2	2	254	7	right	900.52	1	1	1
cipora2014_006	19	F	start_even_right	2	2	255	4	left	1291.53	1	1	1
cipora2014_006	19	F	start_even_right	2	2	256	8	left	1091.6	1	1	1
cipora2014_006	19	F	start_even_right	2	3	257	8	left	851.79	1	1	1
cipora2014_006	19	F	start_even_right	2	3	258	3	right	637.35	1	1	1
cipora2014_006	19	F	start_even_right	2	3	259	4	left	911.34	1	1	1
cipora2014_006	19	F	start_even_right	2	3	260	9	right	838.22	1	1	1
cipora2014_006	19	F	start_even_right	2	3	261	7	right	2000	0	0	0
cipora2014_006	19	F	start_even_right	2	3	262	6	left	843.53	1	1	1
cipora2014_006	19	F	start_even_right	2	3	263	1	right	805	1	1	1
cipora2014_006	19	F	start_even_right	2	3	264	2	left	672.88	1	1	1
cipora2014_006	19	F	start_even_right	2	4	265	3	right	594.17	1	1	1
cipora2014_006	19	F	start_even_right	2	4	266	7	right	1173.98	1	1	1
cipora2014_006	19	F	start_even_right	2	4	267	8	left	754.94	1	1	1
cipora2014_006	19	F	start_even_right	2	4	268	1	right	1169.07	1	1	1
cipora2014_006	19	F	start_even_right	2	4	269	2	left	1164.93	1	1	1
cipora2014_006	19	F	start_even_right	2	4	270	4	left	1305.65	1	1	1
cipora2014_006	19	F	start_even_right	2	4	271	9	right	1393.79	1	1	1
cipora2014_006	19	F	start_even_right	2	4	272	6	left	2000	0	0	0
cipora2014_006	19	F	start_even_right	2	5	273	6	left	591.69	1	1	1
cipora2014_006	19	F	start_even_right	2	5	274	8	left	1059.15	1	1	1
cipora2014_006	19	F	start_even_right	2	5	275	2	left	1143.55	1	1	1
cipora2014_006	19	F	start_even_right	2	5	276	4	left	849.54	1	1	1
cipora2014_006	19	F	start_even_right	2	5	277	9	right	778.82	1	1	1
cipora2014_006	19	F	start_even_right	2	5	278	3	right	1430.86	1	1	1
cipora2014_006	19	F	start_even_right	2	5	279	7	right	697	1	1	1
cipora2014_006	19	F	start_even_right	2	5	280	1	right	760.93	1	1	1
cipora2014_006	19	F	start_even_right	2	6	281	9	right	757.92	1	1	1
cipora2014_006	19	F	start_even_right	2	6	282	2	left	692.48	1	1	1
cipora2014_006	19	F	start_even_right	2	6	283	3	right	707.37	1	1	1
cipora2014_006	19	F	start_even_right	2	6	284	1	right	691.98	1	1	1
cipora2014_006	19	F	start_even_right	2	6	285	6	left	1282.97	1	1	1
cipora2014_006	19	F	start_even_right	2	6	286	4	left	1307.84	1	1	1
cipora2014_006	19	F	start_even_right	2	6	287	7	right	706.56	1	1	1
cipora2014_006	19	F	start_even_right	2	6	288	8	left	1250.55	1	1	1
cipora2014_006	19	F	start_even_right	2	7	289	7	right	1340.18	0	0	0
cipora2014_006	19	F	start_even_right	2	7	290	6	left	913.34	1	1	1
cipora2014_006	19	F	start_even_right	2	7	291	9	right	840.3	1	1	1
cipora2014_006	19	F	start_even_right	2	7	292	1	right	1106.47	1	1	1
cipora2014_006	19	F	start_even_right	2	7	293	8	left	754.22	1	1	1
cipora2014_006	19	F	start_even_right	2	7	294	4	left	1151.7	1	1	1
cipora2014_006	19	F	start_even_right	2	7	295	3	right	845.03	1	1	1
cipora2014_006	19	F	start_even_right	2	7	296	2	left	1391.43	1	1	1
cipora2014_006	19	F	start_even_right	2	8	297	1	right	665.43	1	1	1
cipora2014_006	19	F	start_even_right	2	8	298	4	left	875.02	1	1	1
cipora2014_006	19	F	start_even_right	2	8	299	9	right	979.79	1	1	1
cipora2014_006	19	F	start_even_right	2	8	300	7	right	808.87	1	1	1
cipora2014_006	19	F	start_even_right	2	8	301	8	left	723.51	1	1	1
cipora2014_006	19	F	start_even_right	2	8	302	2	left	1042.02	1	1	1
cipora2014_006	19	F	start_even_right	2	8	303	6	left	899.82	1	1	1
cipora2014_006	19	F	start_even_right	2	8	304	3	right	715.5	1	1	1
cipora2014_006	19	F	start_even_right	2	9	305	3	right	842.8	1	1	1
cipora2014_006	19	F	start_even_right	2	9	306	2	left	868.74	1	1	1
cipora2014_006	19	F	start_even_right	2	9	307	8	left	1246.02	1	1	1
cipora2014_006	19	F	start_even_right	2	9	308	7	right	919.41	1	1	1
cipora2014_006	19	F	start_even_right	2	9	309	1	right	829.61	1	1	1
cipora2014_006	19	F	start_even_right	2	9	310	4	left	696.38	1	1	1
cipora2014_006	19	F	start_even_right	2	9	311	9	right	664.41	1	1	1
cipora2014_006	19	F	start_even_right	2	9	312	6	left	729.32	1	1	1
cipora2014_006	19	F	start_even_right	2	10	313	2	left	824.14	1	1	1
cipora2014_006	19	F	start_even_right	2	10	314	9	right	803.35	1	1	1
cipora2014_006	19	F	start_even_right	2	10	315	1	right	782.39	1	1	1
cipora2014_006	19	F	start_even_right	2	10	316	4	left	651.58	1	1	1
cipora2014_006	19	F	start_even_right	2	10	317	6	left	732.9	1	1	1
cipora2014_006	19	F	start_even_right	2	10	318	3	right	779.03	1	1	1
cipora2014_006	19	F	start_even_right	2	10	319	8	left	583.39	1	1	1
cipora2014_006	19	F	start_even_right	2	10	320	7	right	636.08	1	1	1
cipora2014_006	19	F	start_even_right	2	11	321	6	left	1086.92	1	1	1
cipora2014_006	19	F	start_even_right	2	11	322	8	left	1407.55	1	1	1
cipora2014_006	19	F	start_even_right	2	11	323	3	right	1058.64	1	1	1
cipora2014_006	19	F	start_even_right	2	11	324	9	right	690.96	1	1	1
cipora2014_006	19	F	start_even_right	2	11	325	1	right	754.68	1	1	1
cipora2014_006	19	F	start_even_right	2	11	326	2	left	641.41	1	1	1
cipora2014_006	19	F	start_even_right	2	11	327	4	left	1154.56	1	1	1
cipora2014_006	19	F	start_even_right	2	11	328	7	right	559.86	1	1	1
cipora2014_006	19	F	start_even_right	2	12	329	6	left	805.87	1	1	1
cipora2014_006	19	F	start_even_right	2	12	330	8	left	737.26	1	1	1
cipora2014_006	19	F	start_even_right	2	12	331	3	right	543.95	1	1	1
cipora2014_006	19	F	start_even_right	2	12	332	7	right	1189.47	0	0	0
cipora2014_006	19	F	start_even_right	2	12	333	1	right	625.83	1	1	1
cipora2014_006	19	F	start_even_right	2	12	334	2	left	580.3	1	1	1
cipora2014_006	19	F	start_even_right	2	12	335	4	left	1337.16	1	1	1
cipora2014_006	19	F	start_even_right	2	12	336	9	right	910.52	1	1	1
cipora2014_006	19	F	start_even_right	2	13	337	3	right	693.87	1	1	1
cipora2014_006	19	F	start_even_right	2	13	338	2	left	1045.68	1	1	1
cipora2014_006	19	F	start_even_right	2	13	339	8	left	1111.6	0	0	0
cipora2014_006	19	F	start_even_right	2	13	340	9	right	758.27	1	1	1
cipora2014_006	19	F	start_even_right	2	13	341	1	right	579.44	1	1	1
cipora2014_006	19	F	start_even_right	2	13	342	7	right	775.58	1	1	1
cipora2014_006	19	F	start_even_right	2	13	343	6	left	740.27	1	1	1
cipora2014_006	19	F	start_even_right	2	13	344	4	left	866.12	1	1	1
cipora2014_006	19	F	start_even_right	2	14	345	4	left	604.04	1	1	1
cipora2014_006	19	F	start_even_right	2	14	346	9	right	719.98	1	1	1
cipora2014_006	19	F	start_even_right	2	14	347	1	right	782.45	1	1	1
cipora2014_006	19	F	start_even_right	2	14	348	7	right	539.33	1	1	1
cipora2014_006	19	F	start_even_right	2	14	349	8	left	769.84	1	1	1
cipora2014_006	19	F	start_even_right	2	14	350	3	right	558.85	1	1	1
cipora2014_006	19	F	start_even_right	2	14	351	2	left	803.86	1	1	1
cipora2014_006	19	F	start_even_right	2	14	352	6	left	1007.72	1	1	1
cipora2014_006	19	F	start_even_right	2	15	353	8	left	1362.79	1	1	1
cipora2014_006	19	F	start_even_right	2	15	354	6	left	1479.01	1	1	1
cipora2014_006	19	F	start_even_right	2	15	355	9	right	695.18	1	1	1
cipora2014_006	19	F	start_even_right	2	15	356	2	left	1029.35	1	1	1
cipora2014_006	19	F	start_even_right	2	15	357	7	right	645.24	1	1	1
cipora2014_006	19	F	start_even_right	2	15	358	3	right	635.01	1	1	1
cipora2014_006	19	F	start_even_right	2	15	359	4	left	1021.33	1	1	1
cipora2014_006	19	F	start_even_right	2	15	360	1	right	1440.87	1	1	1
cipora2014_006	19	F	start_even_right	2	16	361	9	right	721.68	1	1	1
cipora2014_006	19	F	start_even_right	2	16	362	8	left	976.71	1	1	1
cipora2014_006	19	F	start_even_right	2	16	363	1	right	789.04	1	1	1
cipora2014_006	19	F	start_even_right	2	16	364	2	left	993	1	1	1
cipora2014_006	19	F	start_even_right	2	16	365	4	left	629.35	1	1	1
cipora2014_006	19	F	start_even_right	2	16	366	3	right	631.79	1	1	1
cipora2014_006	19	F	start_even_right	2	16	367	6	left	762.43	1	1	1
cipora2014_006	19	F	start_even_right	2	16	368	7	right	711.57	1	1	1
cipora2014_006	19	F	start_even_right	2	17	369	9	right	1046.56	1	1	1
cipora2014_006	19	F	start_even_right	2	17	370	1	right	1031.36	1	1	1
cipora2014_006	19	F	start_even_right	2	17	371	3	right	554.59	1	1	1
cipora2014_006	19	F	start_even_right	2	17	372	6	left	751.86	1	1	1
cipora2014_006	19	F	start_even_right	2	17	373	4	left	2000	0	0	0
cipora2014_006	19	F	start_even_right	2	17	374	2	left	1063.96	1	1	1
cipora2014_006	19	F	start_even_right	2	17	375	7	right	729.56	1	1	1
cipora2014_006	19	F	start_even_right	2	17	376	8	left	615.28	1	1	1
cipora2014_006	19	F	start_even_right	2	18	377	7	right	555.53	1	1	1
cipora2014_006	19	F	start_even_right	2	18	378	8	left	849.26	1	1	1
cipora2014_006	19	F	start_even_right	2	18	379	3	right	1402.69	0	0	0
cipora2014_006	19	F	start_even_right	2	18	380	4	left	1742.29	1	1	0
cipora2014_006	19	F	start_even_right	2	18	381	1	right	659.42	1	1	1
cipora2014_006	19	F	start_even_right	2	18	382	9	right	740.88	1	1	1
cipora2014_006	19	F	start_even_right	2	18	383	2	left	642.24	1	1	1
cipora2014_006	19	F	start_even_right	2	18	384	6	left	1668.03	1	1	0
cipora2014_006	19	F	start_even_right	2	19	385	2	left	716.21	1	1	1
cipora2014_006	19	F	start_even_right	2	19	386	3	right	731.99	1	1	1
cipora2014_006	19	F	start_even_right	2	19	387	9	right	1658.06	1	1	0
cipora2014_006	19	F	start_even_right	2	19	388	7	right	1250.1	1	1	1
cipora2014_006	19	F	start_even_right	2	19	389	6	left	667.83	1	1	1
cipora2014_006	19	F	start_even_right	2	19	390	4	left	1356.68	1	1	1
cipora2014_006	19	F	start_even_right	2	19	391	1	right	578.29	1	1	1
cipora2014_006	19	F	start_even_right	2	19	392	8	left	1126.98	1	1	1
cipora2014_006	19	F	start_even_right	2	20	393	4	left	772.64	1	1	1
cipora2014_006	19	F	start_even_right	2	20	394	3	right	753.99	1	1	1
cipora2014_006	19	F	start_even_right	2	20	395	2	left	847.54	1	1	1
cipora2014_006	19	F	start_even_right	2	20	396	7	right	697.62	1	1	1
cipora2014_006	19	F	start_even_right	2	20	397	6	left	841.64	1	1	1
cipora2014_006	19	F	start_even_right	2	20	398	8	left	738.62	1	1	1
cipora2014_006	19	F	start_even_right	2	20	399	9	right	875.42	1	1	1
cipora2014_006	19	F	start_even_right	2	20	400	1	right	650	1	1	1
cipora2014_006	19	F	start_even_right	2	21	401	6	left	747.1	1	1	1
cipora2014_006	19	F	start_even_right	2	21	402	9	right	633.93	1	1	1
cipora2014_006	19	F	start_even_right	2	21	403	4	left	636.58	1	1	1
cipora2014_006	19	F	start_even_right	2	21	404	8	left	734.76	1	1	1
cipora2014_006	19	F	start_even_right	2	21	405	1	right	572.72	1	1	1
cipora2014_006	19	F	start_even_right	2	21	406	3	right	1250.16	0	0	0
cipora2014_006	19	F	start_even_right	2	21	407	7	right	635.64	1	1	1
cipora2014_006	19	F	start_even_right	2	21	408	2	left	686	1	1	1
cipora2014_006	19	F	start_even_right	2	22	409	9	right	1182.2	1	1	1
cipora2014_006	19	F	start_even_right	2	22	410	8	left	651.05	1	1	1
cipora2014_006	19	F	start_even_right	2	22	411	3	right	652.47	1	1	1
cipora2014_006	19	F	start_even_right	2	22	412	7	right	1150.8	1	1	1
cipora2014_006	19	F	start_even_right	2	22	413	6	left	955.68	1	1	1
cipora2014_006	19	F	start_even_right	2	22	414	4	left	1281.68	1	1	1
cipora2014_006	19	F	start_even_right	2	22	415	1	right	633.67	1	1	1
cipora2014_006	19	F	start_even_right	2	22	416	2	left	764.03	1	1	1
cipora2014_006	19	F	start_even_right	2	23	417	7	right	601.07	1	1	1
cipora2014_006	19	F	start_even_right	2	23	418	3	right	701.37	1	1	1
cipora2014_006	19	F	start_even_right	2	23	419	6	left	1005.34	1	1	1
cipora2014_006	19	F	start_even_right	2	23	420	4	left	659.4	1	1	1
cipora2014_006	19	F	start_even_right	2	23	421	1	right	1041.64	1	1	1
cipora2014_006	19	F	start_even_right	2	23	422	9	right	1252.18	1	1	1
cipora2014_006	19	F	start_even_right	2	23	423	2	left	1501.7	1	1	1
cipora2014_006	19	F	start_even_right	2	23	424	8	left	796.84	1	1	1
cipora2014_006	19	F	start_even_right	2	24	425	4	left	760.52	1	1	1
cipora2014_006	19	F	start_even_right	2	24	426	2	left	885.47	1	1	1
cipora2014_006	19	F	start_even_right	2	24	427	1	right	622.15	1	1	1
cipora2014_006	19	F	start_even_right	2	24	428	3	right	800.36	1	1	1
cipora2014_006	19	F	start_even_right	2	24	429	9	right	1027.75	1	1	1
cipora2014_006	19	F	start_even_right	2	24	430	6	left	942.41	1	1	1
cipora2014_006	19	F	start_even_right	2	24	431	8	left	644.57	1	1	1
cipora2014_006	19	F	start_even_right	2	24	432	7	right	790.53	1	1	1
cipora2014_006	19	F	start_even_right	2	25	433	1	right	881.9	1	1	1
cipora2014_006	19	F	start_even_right	2	25	434	7	right	1002.55	1	1	1
cipora2014_006	19	F	start_even_right	2	25	435	9	right	958.35	1	1	1
cipora2014_006	19	F	start_even_right	2	25	436	2	left	1362.61	1	1	1
cipora2014_006	19	F	start_even_right	2	25	437	8	left	647.48	1	1	1
cipora2014_006	19	F	start_even_right	2	25	438	4	left	761.45	1	1	1
cipora2014_006	19	F	start_even_right	2	25	439	3	right	645.98	1	1	1
cipora2014_006	19	F	start_even_right	2	25	440	6	left	1272.6	0	0	0
cipora2014_006	19	F	start_even_right	2	26	441	4	left	864.61	1	1	1
cipora2014_006	19	F	start_even_right	2	26	442	8	left	665.88	1	1	1
cipora2014_006	19	F	start_even_right	2	26	443	6	left	779.55	1	1	1
cipora2014_006	19	F	start_even_right	2	26	444	7	right	647.53	1	1	1
cipora2014_006	19	F	start_even_right	2	26	445	3	right	809.27	1	1	1
cipora2014_006	19	F	start_even_right	2	26	446	1	right	612.54	1	1	1
cipora2014_006	19	F	start_even_right	2	26	447	2	left	1160.18	1	1	1
cipora2014_006	19	F	start_even_right	2	26	448	9	right	884.77	1	1	1
cipora2014_006	19	F	start_even_right	2	27	449	7	right	728.81	1	1	1
cipora2014_006	19	F	start_even_right	2	27	450	9	right	627.32	1	1	1
cipora2014_006	19	F	start_even_right	2	27	451	2	left	702.09	1	1	1
cipora2014_006	19	F	start_even_right	2	27	452	3	right	909.36	1	1	1
cipora2014_006	19	F	start_even_right	2	27	453	4	left	1141	1	1	1
cipora2014_006	19	F	start_even_right	2	27	454	8	left	786.59	1	1	1
cipora2014_006	19	F	start_even_right	2	27	455	1	right	655.57	1	1	1
cipora2014_006	19	F	start_even_right	2	27	456	6	left	1280.94	1	1	1
cipora2014_006	19	F	start_even_right	2	28	457	7	right	1657.38	1	1	0
cipora2014_006	19	F	start_even_right	2	28	458	2	left	610.04	1	1	1
cipora2014_006	19	F	start_even_right	2	28	459	1	right	644.87	1	1	1
cipora2014_006	19	F	start_even_right	2	28	460	6	left	710.72	1	1	1
cipora2014_006	19	F	start_even_right	2	28	461	4	left	842.77	1	1	1
cipora2014_006	19	F	start_even_right	2	28	462	8	left	2000	0	0	0
cipora2014_006	19	F	start_even_right	2	28	463	9	right	586.23	1	1	1
cipora2014_006	19	F	start_even_right	2	28	464	3	right	815.34	1	1	1
cipora2014_006	19	F	start_even_right	2	29	465	8	left	922.64	1	1	1
cipora2014_006	19	F	start_even_right	2	29	466	2	left	1376.9	1	1	1
cipora2014_006	19	F	start_even_right	2	29	467	6	left	564.08	0	0	0
cipora2014_006	19	F	start_even_right	2	29	468	7	right	762.42	1	1	1
cipora2014_006	19	F	start_even_right	2	29	469	3	right	1111.96	1	1	1
cipora2014_006	19	F	start_even_right	2	29	470	4	left	1046.57	1	1	1
cipora2014_006	19	F	start_even_right	2	29	471	9	right	1143.88	1	1	1
cipora2014_006	19	F	start_even_right	2	29	472	1	right	869.46	0	0	0
cipora2014_006	19	F	start_even_right	2	30	473	8	left	1550.36	1	1	0
cipora2014_006	19	F	start_even_right	2	30	474	9	right	731.04	1	1	1
cipora2014_006	19	F	start_even_right	2	30	475	6	left	1081.71	1	1	1
cipora2014_006	19	F	start_even_right	2	30	476	4	left	1401.57	1	1	1
cipora2014_006	19	F	start_even_right	2	30	477	3	right	861.41	1	1	1
cipora2014_006	19	F	start_even_right	2	30	478	2	left	901.78	1	1	1
cipora2014_006	19	F	start_even_right	2	30	479	7	right	733.85	1	1	1
cipora2014_006	19	F	start_even_right	2	30	480	1	right	812.26	1	1	1
cipora2014_012	19	F	start_even_right	1	1	1	6	right	699.42	1	1	1
cipora2014_012	19	F	start_even_right	1	1	2	1	left	746.54	1	1	1
cipora2014_012	19	F	start_even_right	1	1	3	4	right	584.52	1	1	1
cipora2014_012	19	F	start_even_right	1	1	4	3	left	861.65	1	1	1
cipora2014_012	19	F	start_even_right	1	1	5	8	right	678.48	1	1	1
cipora2014_012	19	F	start_even_right	1	1	6	9	left	1079.18	1	1	1
cipora2014_012	19	F	start_even_right	1	1	7	7	left	566.81	1	1	1
cipora2014_012	19	F	start_even_right	1	1	8	2	right	555.92	1	1	1
cipora2014_012	19	F	start_even_right	1	2	9	3	left	593.93	1	1	1
cipora2014_012	19	F	start_even_right	1	2	10	6	right	949.11	1	1	1
cipora2014_012	19	F	start_even_right	1	2	11	8	right	683.54	1	1	1
cipora2014_012	19	F	start_even_right	1	2	12	2	right	651.61	1	1	1
cipora2014_012	19	F	start_even_right	1	2	13	1	left	749.74	1	1	1
cipora2014_012	19	F	start_even_right	1	2	14	9	left	698.96	1	1	1
cipora2014_012	19	F	start_even_right	1	2	15	7	left	507.04	1	1	1
cipora2014_012	19	F	start_even_right	1	2	16	4	right	610.53	1	1	1
cipora2014_012	19	F	start_even_right	1	3	17	4	right	646.31	1	1	1
cipora2014_012	19	F	start_even_right	1	3	18	9	left	663.39	1	1	1
cipora2014_012	19	F	start_even_right	1	3	19	8	right	584.74	1	1	1
cipora2014_012	19	F	start_even_right	1	3	20	2	right	621.59	1	1	1
cipora2014_012	19	F	start_even_right	1	3	21	1	left	1056.83	1	1	1
cipora2014_012	19	F	start_even_right	1	3	22	7	left	786.79	1	1	1
cipora2014_012	19	F	start_even_right	1	3	23	3	left	798.32	1	1	1
cipora2014_012	19	F	start_even_right	1	3	24	6	right	682.84	1	1	1
cipora2014_012	19	F	start_even_right	1	4	25	3	left	731.06	1	1	1
cipora2014_012	19	F	start_even_right	1	4	26	8	right	649.06	1	1	1
cipora2014_012	19	F	start_even_right	1	4	27	4	right	714.93	1	1	1
cipora2014_012	19	F	start_even_right	1	4	28	6	right	891.01	0	0	0
cipora2014_012	19	F	start_even_right	1	4	29	2	right	1075.22	1	1	1
cipora2014_012	19	F	start_even_right	1	4	30	7	left	850.56	1	1	1
cipora2014_012	19	F	start_even_right	1	4	31	9	left	1052.34	1	1	1
cipora2014_012	19	F	start_even_right	1	4	32	1	left	830.12	1	1	1
cipora2014_012	19	F	start_even_right	1	5	33	1	left	680.24	1	1	1
cipora2014_012	19	F	start_even_right	1	5	34	9	left	601.58	1	1	1
cipora2014_012	19	F	start_even_right	1	5	35	3	left	668.71	1	1	1
cipora2014_012	19	F	start_even_right	1	5	36	8	right	606.51	1	1	1
cipora2014_012	19	F	start_even_right	1	5	37	6	right	769.28	1	1	1
cipora2014_012	19	F	start_even_right	1	5	38	4	right	862.97	1	1	1
cipora2014_012	19	F	start_even_right	1	5	39	7	left	671.03	1	1	1
cipora2014_012	19	F	start_even_right	1	5	40	2	right	728.96	1	1	1
cipora2014_012	19	F	start_even_right	1	6	41	6	right	583.52	1	1	1
cipora2014_012	19	F	start_even_right	1	6	42	3	left	583.36	1	1	1
cipora2014_012	19	F	start_even_right	1	6	43	4	right	704.37	1	1	1
cipora2014_012	19	F	start_even_right	1	6	44	2	right	816.81	1	1	1
cipora2014_012	19	F	start_even_right	1	6	45	7	left	731.51	1	1	1
cipora2014_012	19	F	start_even_right	1	6	46	8	right	666.2	1	1	1
cipora2014_012	19	F	start_even_right	1	6	47	9	left	635.32	1	1	1
cipora2014_012	19	F	start_even_right	1	6	48	1	left	941.6	1	1	1
cipora2014_012	19	F	start_even_right	1	7	49	6	right	947.35	1	1	1
cipora2014_012	19	F	start_even_right	1	7	50	7	left	665.13	1	1	1
cipora2014_012	19	F	start_even_right	1	7	51	1	left	569.99	1	1	1
cipora2014_012	19	F	start_even_right	1	7	52	2	right	671.37	1	1	1
cipora2014_012	19	F	start_even_right	1	7	53	9	left	1264.63	1	1	0
cipora2014_012	19	F	start_even_right	1	7	54	3	left	665.37	1	1	1
cipora2014_012	19	F	start_even_right	1	7	55	8	right	618.97	1	1	1
cipora2014_012	19	F	start_even_right	1	7	56	4	right	829.54	1	1	1
cipora2014_012	19	F	start_even_right	1	8	57	7	left	759.87	1	1	1
cipora2014_012	19	F	start_even_right	1	8	58	2	right	693.34	1	1	1
cipora2014_012	19	F	start_even_right	1	8	59	1	left	644.63	1	1	1
cipora2014_012	19	F	start_even_right	1	8	60	4	right	742.81	1	1	1
cipora2014_012	19	F	start_even_right	1	8	61	6	right	532.82	1	1	1
cipora2014_012	19	F	start_even_right	1	8	62	8	right	587.67	1	1	1
cipora2014_012	19	F	start_even_right	1	8	63	9	left	655.78	1	1	1
cipora2014_012	19	F	start_even_right	1	8	64	3	left	706.06	1	1	1
cipora2014_012	19	F	start_even_right	1	9	65	6	right	705.33	1	1	1
cipora2014_012	19	F	start_even_right	1	9	66	1	left	913.58	1	1	1
cipora2014_012	19	F	start_even_right	1	9	67	4	right	648.1	1	1	1
cipora2014_012	19	F	start_even_right	1	9	68	2	right	634.97	1	1	1
cipora2014_012	19	F	start_even_right	1	9	69	7	left	593.58	1	1	1
cipora2014_012	19	F	start_even_right	1	9	70	9	left	1125.56	1	1	1
cipora2014_012	19	F	start_even_right	1	9	71	8	right	671.62	1	1	1
cipora2014_012	19	F	start_even_right	1	9	72	3	left	592.84	1	1	1
cipora2014_012	19	F	start_even_right	1	10	73	9	left	1076	1	1	1
cipora2014_012	19	F	start_even_right	1	10	74	6	right	1028.4	1	1	1
cipora2014_012	19	F	start_even_right	1	10	75	7	left	614.84	1	1	1
cipora2014_012	19	F	start_even_right	1	10	76	2	right	714.17	1	1	1
cipora2014_012	19	F	start_even_right	1	10	77	4	right	680.2	1	1	1
cipora2014_012	19	F	start_even_right	1	10	78	1	left	1097.49	1	1	1
cipora2014_012	19	F	start_even_right	1	10	79	8	right	617.34	1	1	1
cipora2014_012	19	F	start_even_right	1	10	80	3	left	699.92	1	1	1
cipora2014_012	19	F	start_even_right	1	11	81	2	right	780.35	1	1	1
cipora2014_012	19	F	start_even_right	1	11	82	8	right	936.42	0	0	0
cipora2014_012	19	F	start_even_right	1	11	83	6	right	686.51	1	1	1
cipora2014_012	19	F	start_even_right	1	11	84	9	left	766.8	1	1	1
cipora2014_012	19	F	start_even_right	1	11	85	7	left	956.25	1	1	1
cipora2014_012	19	F	start_even_right	1	11	86	1	left	671	1	1	1
cipora2014_012	19	F	start_even_right	1	11	87	3	left	658.74	1	1	1
cipora2014_012	19	F	start_even_right	1	11	88	4	right	644.49	1	1	1
cipora2014_012	19	F	start_even_right	1	12	89	1	left	742.72	1	1	1
cipora2014_012	19	F	start_even_right	1	12	90	9	left	596.15	1	1	1
cipora2014_012	19	F	start_even_right	1	12	91	3	left	504.1	1	1	1
cipora2014_012	19	F	start_even_right	1	12	92	2	right	880.33	1	1	1
cipora2014_012	19	F	start_even_right	1	12	93	6	right	568.19	1	1	1
cipora2014_012	19	F	start_even_right	1	12	94	7	left	573.89	1	1	1
cipora2014_012	19	F	start_even_right	1	12	95	4	right	674.38	1	1	1
cipora2014_012	19	F	start_even_right	1	12	96	8	right	1139.55	1	1	1
cipora2014_012	19	F	start_even_right	1	13	97	9	left	673.81	1	1	1
cipora2014_012	19	F	start_even_right	1	13	98	7	left	1090.24	1	1	1
cipora2014_012	19	F	start_even_right	1	13	99	6	right	865.87	1	1	1
cipora2014_012	19	F	start_even_right	1	13	100	1	left	587.08	1	1	1
cipora2014_012	19	F	start_even_right	1	13	101	3	left	896.41	1	1	1
cipora2014_012	19	F	start_even_right	1	13	102	2	right	551.93	1	1	1
cipora2014_012	19	F	start_even_right	1	13	103	8	right	877.14	1	1	1
cipora2014_012	19	F	start_even_right	1	13	104	4	right	630.39	1	1	1
cipora2014_012	19	F	start_even_right	1	14	105	6	right	600.58	1	1	1
cipora2014_012	19	F	start_even_right	1	14	106	8	right	524.22	1	1	1
cipora2014_012	19	F	start_even_right	1	14	107	9	left	626.81	1	1	1
cipora2014_012	19	F	start_even_right	1	14	108	2	right	1093.37	1	1	1
cipora2014_012	19	F	start_even_right	1	14	109	1	left	660.93	1	1	1
cipora2014_012	19	F	start_even_right	1	14	110	4	right	549.89	1	1	1
cipora2014_012	19	F	start_even_right	1	14	111	7	left	668.1	1	1	1
cipora2014_012	19	F	start_even_right	1	14	112	3	left	1069.92	1	1	1
cipora2014_012	19	F	start_even_right	1	15	113	3	left	814.38	1	1	1
cipora2014_012	19	F	start_even_right	1	15	114	6	right	649.04	1	1	1
cipora2014_012	19	F	start_even_right	1	15	115	4	right	634.88	1	1	1
cipora2014_012	19	F	start_even_right	1	15	116	1	left	589.65	1	1	1
cipora2014_012	19	F	start_even_right	1	15	117	2	right	802.24	1	1	1
cipora2014_012	19	F	start_even_right	1	15	118	8	right	606.68	1	1	1
cipora2014_012	19	F	start_even_right	1	15	119	9	left	721.66	1	1	1
cipora2014_012	19	F	start_even_right	1	15	120	7	left	944.48	1	1	1
cipora2014_012	19	F	start_even_right	1	16	121	1	left	742.34	1	1	1
cipora2014_012	19	F	start_even_right	1	16	122	4	right	931.69	1	1	1
cipora2014_012	19	F	start_even_right	1	16	123	7	left	682.71	1	1	1
cipora2014_012	19	F	start_even_right	1	16	124	2	right	635.25	1	1	1
cipora2014_012	19	F	start_even_right	1	16	125	6	right	829.16	1	1	1
cipora2014_012	19	F	start_even_right	1	16	126	8	right	568.02	1	1	1
cipora2014_012	19	F	start_even_right	1	16	127	3	left	1021.21	1	1	1
cipora2014_012	19	F	start_even_right	1	16	128	9	left	1408.51	1	1	0
cipora2014_012	19	F	start_even_right	1	17	129	6	right	531.23	1	1	1
cipora2014_012	19	F	start_even_right	1	17	130	3	left	633.8	1	1	1
cipora2014_012	19	F	start_even_right	1	17	131	1	left	604.22	1	1	1
cipora2014_012	19	F	start_even_right	1	17	132	8	right	672.33	1	1	1
cipora2014_012	19	F	start_even_right	1	17	133	7	left	865.01	1	1	1
cipora2014_012	19	F	start_even_right	1	17	134	9	left	971	0	0	0
cipora2014_012	19	F	start_even_right	1	17	135	2	right	687.69	1	1	1
cipora2014_012	19	F	start_even_right	1	17	136	4	right	479.95	1	1	1
cipora2014_012	19	F	start_even_right	1	18	137	7	left	584.83	1	1	1
cipora2014_012	19	F	start_even_right	1	18	138	3	left	669.62	1	1	1
cipora2014_012	19	F	start_even_right	1	18	139	4	right	727.63	1	1	1
cipora2014_012	19	F	start_even_right	1	18	140	1	left	781.32	1	1	1
cipora2014_012	19	F	start_even_right	1	18	141	8	right	649.35	1	1	1
cipora2014_012	19	F	start_even_right	1	18	142	9	left	1035.66	1	1	1
cipora2014_012	19	F	start_even_right	1	18	143	2	right	845.78	1	1	1
cipora2014_012	19	F	start_even_right	1	18	144	6	right	919.44	1	1	1
cipora2014_012	19	F	start_even_right	1	19	145	2	right	766.35	1	1	1
cipora2014_012	19	F	start_even_right	1	19	146	1	left	923.51	1	1	1
cipora2014_012	19	F	start_even_right	1	19	147	7	left	1138.48	1	1	1
cipora2014_012	19	F	start_even_right	1	19	148	3	left	784.03	1	1	1
cipora2014_012	19	F	start_even_right	1	19	149	9	left	1116.9	0	0	0
cipora2014_012	19	F	start_even_right	1	19	150	4	right	731.31	1	1	1
cipora2014_012	19	F	start_even_right	1	19	151	6	right	490.27	1	1	1
cipora2014_012	19	F	start_even_right	1	19	152	8	right	450.46	1	1	1
cipora2014_012	19	F	start_even_right	1	20	153	6	right	722.5	1	1	1
cipora2014_012	19	F	start_even_right	1	20	154	2	right	667.91	1	1	1
cipora2014_012	19	F	start_even_right	1	20	155	1	left	621.44	1	1	1
cipora2014_012	19	F	start_even_right	1	20	156	9	left	592.84	1	1	1
cipora2014_012	19	F	start_even_right	1	20	157	3	left	564.16	1	1	1
cipora2014_012	19	F	start_even_right	1	20	158	8	right	680.39	1	1	1
cipora2014_012	19	F	start_even_right	1	20	159	7	left	1001.98	1	1	1
cipora2014_012	19	F	start_even_right	1	20	160	4	right	814.2	1	1	1
cipora2014_012	19	F	start_even_right	1	21	161	8	right	664.37	1	1	1
cipora2014_012	19	F	start_even_right	1	21	162	4	right	665.81	1	1	1
cipora2014_012	19	F	start_even_right	1	21	163	3	left	1163.3	1	1	1
cipora2014_012	19	F	start_even_right	1	21	164	6	right	775.58	1	1	1
cipora2014_012	19	F	start_even_right	1	21	165	2	right	819.54	1	1	1
cipora2014_012	19	F	start_even_right	1	21	166	9	left	671.6	1	1	1
cipora2014_012	19	F	start_even_right	1	21	167	7	left	560.67	1	1	1
cipora2014_012	19	F	start_even_right	1	21	168	1	left	566.33	1	1	1
cipora2014_012	19	F	start_even_right	1	22	169	2	right	587.82	1	1	1
cipora2014_012	19	F	start_even_right	1	22	170	1	left	575.94	1	1	1
cipora2014_012	19	F	start_even_right	1	22	171	8	right	740.72	1	1	1
cipora2014_012	19	F	start_even_right	1	22	172	7	left	690.01	1	1	1
cipora2014_012	19	F	start_even_right	1	22	173	3	left	978.33	1	1	1
cipora2014_012	19	F	start_even_right	1	22	174	4	right	950.82	1	1	1
cipora2014_012	19	F	start_even_right	1	22	175	9	left	876.71	1	1	1
cipora2014_012	19	F	start_even_right	1	22	176	6	right	741.2	1	1	1
cipora2014_012	19	F	start_even_right	1	23	177	7	left	579.14	1	1	1
cipora2014_012	19	F	start_even_right	1	23	178	1	left	663.91	1	1	1
cipora2014_012	19	F	start_even_right	1	23	179	9	left	696.62	1	1	1
cipora2014_012	19	F	start_even_right	1	23	180	2	right	792.53	1	1	1
cipora2014_012	19	F	start_even_right	1	23	181	8	right	1028.54	1	1	1
cipora2014_012	19	F	start_even_right	1	23	182	4	right	646.42	1	1	1
cipora2014_012	19	F	start_even_right	1	23	183	6	right	584.4	1	1	1
cipora2014_012	19	F	start_even_right	1	23	184	3	left	764.74	1	1	1
cipora2014_012	19	F	start_even_right	1	24	185	9	left	633.77	1	1	1
cipora2014_012	19	F	start_even_right	1	24	186	2	right	668.67	1	1	1
cipora2014_012	19	F	start_even_right	1	24	187	7	left	702.26	1	1	1
cipora2014_012	19	F	start_even_right	1	24	188	4	right	510.11	1	1	1
cipora2014_012	19	F	start_even_right	1	24	189	1	left	564.84	1	1	1
cipora2014_012	19	F	start_even_right	1	24	190	6	right	506.17	1	1	1
cipora2014_012	19	F	start_even_right	1	24	191	8	right	578.75	1	1	1
cipora2014_012	19	F	start_even_right	1	24	192	3	left	519.03	1	1	1
cipora2014_012	19	F	start_even_right	1	25	193	2	right	462.44	1	1	1
cipora2014_012	19	F	start_even_right	1	25	194	1	left	584.04	1	1	1
cipora2014_012	19	F	start_even_right	1	25	195	9	left	716.56	1	1	1
cipora2014_012	19	F	start_even_right	1	25	196	3	left	587.89	1	1	1
cipora2014_012	19	F	start_even_right	1	25	197	6	right	671.7	1	1	1
cipora2014_012	19	F	start_even_right	1	25	198	4	right	625.18	1	1	1
cipora2014_012	19	F	start_even_right	1	25	199	7	left	451.95	1	1	1
cipora2014_012	19	F	start_even_right	1	25	200	8	right	429.92	1	1	1
cipora2014_012	19	F	start_even_right	1	26	201	1	left	584.83	1	1	1
cipora2014_012	19	F	start_even_right	1	26	202	9	left	829.72	1	1	1
cipora2014_012	19	F	start_even_right	1	26	203	4	right	632	1	1	1
cipora2014_012	19	F	start_even_right	1	26	204	6	right	537.92	1	1	1
cipora2014_012	19	F	start_even_right	1	26	205	2	right	657.13	1	1	1
cipora2014_012	19	F	start_even_right	1	26	206	7	left	562.81	1	1	1
cipora2014_012	19	F	start_even_right	1	26	207	8	right	536.36	1	1	1
cipora2014_012	19	F	start_even_right	1	26	208	3	left	671.25	1	1	1
cipora2014_012	19	F	start_even_right	1	27	209	8	right	875.7	1	1	1
cipora2014_012	19	F	start_even_right	1	27	210	1	left	520.52	1	1	1
cipora2014_012	19	F	start_even_right	1	27	211	6	right	447.47	1	1	1
cipora2014_012	19	F	start_even_right	1	27	212	2	right	553.38	1	1	1
cipora2014_012	19	F	start_even_right	1	27	213	3	left	591.43	1	1	1
cipora2014_012	19	F	start_even_right	1	27	214	9	left	659.64	1	1	1
cipora2014_012	19	F	start_even_right	1	27	215	7	left	949.01	1	1	1
cipora2014_012	19	F	start_even_right	1	27	216	4	right	490.13	1	1	1
cipora2014_012	19	F	start_even_right	1	28	217	8	right	707.22	1	1	1
cipora2014_012	19	F	start_even_right	1	28	218	7	left	627.39	1	1	1
cipora2014_012	19	F	start_even_right	1	28	219	3	left	725.59	1	1	1
cipora2014_012	19	F	start_even_right	1	28	220	4	right	660.25	1	1	1
cipora2014_012	19	F	start_even_right	1	28	221	9	left	997.47	1	1	1
cipora2014_012	19	F	start_even_right	1	28	222	1	left	1096.95	1	1	1
cipora2014_012	19	F	start_even_right	1	28	223	2	right	584.52	1	1	1
cipora2014_012	19	F	start_even_right	1	28	224	6	right	669.3	1	1	1
cipora2014_012	19	F	start_even_right	1	29	225	8	right	510.48	1	1	1
cipora2014_012	19	F	start_even_right	1	29	226	7	left	629.73	1	1	1
cipora2014_012	19	F	start_even_right	1	29	227	4	right	1128.41	1	1	1
cipora2014_012	19	F	start_even_right	1	29	228	3	left	741.79	1	1	1
cipora2014_012	19	F	start_even_right	1	29	229	9	left	1027.84	1	1	1
cipora2014_012	19	F	start_even_right	1	29	230	2	right	517.79	1	1	1
cipora2014_012	19	F	start_even_right	1	29	231	6	right	941.73	1	1	1
cipora2014_012	19	F	start_even_right	1	29	232	1	left	755.13	1	1	1
cipora2014_012	19	F	start_even_right	1	30	233	9	left	1232.65	1	1	0
cipora2014_012	19	F	start_even_right	1	30	234	8	right	907.16	1	1	1
cipora2014_012	19	F	start_even_right	1	30	235	4	right	498.08	1	1	1
cipora2014_012	19	F	start_even_right	1	30	236	7	left	555.1	1	1	1
cipora2014_012	19	F	start_even_right	1	30	237	6	right	672.31	1	1	1
cipora2014_012	19	F	start_even_right	1	30	238	1	left	705.8	1	1	1
cipora2014_012	19	F	start_even_right	1	30	239	3	left	1296.91	1	1	0
cipora2014_012	19	F	start_even_right	1	30	240	2	right	761.1	1	1	1
cipora2014_012	19	F	start_even_right	2	1	241	3	right	1046.3	1	1	1
cipora2014_012	19	F	start_even_right	2	1	242	6	left	727.4	1	1	1
cipora2014_012	19	F	start_even_right	2	1	243	8	left	1093.65	1	1	1
cipora2014_012	19	F	start_even_right	2	1	244	9	right	661.31	1	1	1
cipora2014_012	19	F	start_even_right	2	1	245	7	right	599.14	1	1	1
cipora2014_012	19	F	start_even_right	2	1	246	2	left	763	1	1	1
cipora2014_012	19	F	start_even_right	2	1	247	4	left	872.33	1	1	1
cipora2014_012	19	F	start_even_right	2	1	248	1	right	784.78	1	1	1
cipora2014_012	19	F	start_even_right	2	2	249	4	left	765.1	1	1	1
cipora2014_012	19	F	start_even_right	2	2	250	2	left	538.42	1	1	1
cipora2014_012	19	F	start_even_right	2	2	251	9	right	816.8	1	1	1
cipora2014_012	19	F	start_even_right	2	2	252	7	right	524.54	1	1	1
cipora2014_012	19	F	start_even_right	2	2	253	8	left	722.76	1	1	1
cipora2014_012	19	F	start_even_right	2	2	254	6	left	1458.33	1	1	0
cipora2014_012	19	F	start_even_right	2	2	255	1	right	785.99	1	1	1
cipora2014_012	19	F	start_even_right	2	2	256	3	right	734.96	1	1	1
cipora2014_012	19	F	start_even_right	2	3	257	7	right	509.46	1	1	1
cipora2014_012	19	F	start_even_right	2	3	258	3	right	532.97	1	1	1
cipora2014_012	19	F	start_even_right	2	3	259	9	right	1019.51	1	1	1
cipora2014_012	19	F	start_even_right	2	3	260	4	left	909.83	1	1	1
cipora2014_012	19	F	start_even_right	2	3	261	1	right	965.58	1	1	1
cipora2014_012	19	F	start_even_right	2	3	262	2	left	745.85	1	1	1
cipora2014_012	19	F	start_even_right	2	3	263	8	left	904.05	0	0	0
cipora2014_012	19	F	start_even_right	2	3	264	6	left	687.5	0	0	0
cipora2014_012	19	F	start_even_right	2	4	265	3	right	1136.06	0	0	0
cipora2014_012	19	F	start_even_right	2	4	266	8	left	1582.39	1	1	0
cipora2014_012	19	F	start_even_right	2	4	267	1	right	761.93	1	1	1
cipora2014_012	19	F	start_even_right	2	4	268	4	left	1558.7	1	1	0
cipora2014_012	19	F	start_even_right	2	4	269	7	right	755.05	1	1	1
cipora2014_012	19	F	start_even_right	2	4	270	6	left	1041.18	1	1	1
cipora2014_012	19	F	start_even_right	2	4	271	9	right	595.47	1	1	1
cipora2014_012	19	F	start_even_right	2	4	272	2	left	1030.66	1	1	1
cipora2014_012	19	F	start_even_right	2	5	273	8	left	537.2	1	1	1
cipora2014_012	19	F	start_even_right	2	5	274	9	right	672.04	1	1	1
cipora2014_012	19	F	start_even_right	2	5	275	6	left	849.09	1	1	1
cipora2014_012	19	F	start_even_right	2	5	276	7	right	682.69	1	1	1
cipora2014_012	19	F	start_even_right	2	5	277	4	left	859.77	1	1	1
cipora2014_012	19	F	start_even_right	2	5	278	3	right	836.69	1	1	1
cipora2014_012	19	F	start_even_right	2	5	279	2	left	975.03	1	1	1
cipora2014_012	19	F	start_even_right	2	5	280	1	right	819.53	1	1	1
cipora2014_012	19	F	start_even_right	2	6	281	7	right	766.41	1	1	1
cipora2014_012	19	F	start_even_right	2	6	282	9	right	1019.28	1	1	1
cipora2014_012	19	F	start_even_right	2	6	283	1	right	670.31	1	1	1
cipora2014_012	19	F	start_even_right	2	6	284	6	left	1103.45	1	1	1
cipora2014_012	19	F	start_even_right	2	6	285	8	left	1247.21	1	1	0
cipora2014_012	19	F	start_even_right	2	6	286	3	right	743.76	1	1	1
cipora2014_012	19	F	start_even_right	2	6	287	4	left	821.97	1	1	1
cipora2014_012	19	F	start_even_right	2	6	288	2	left	625.35	1	1	1
cipora2014_012	19	F	start_even_right	2	7	289	1	right	771.42	1	1	1
cipora2014_012	19	F	start_even_right	2	7	290	4	left	1168.73	1	1	1
cipora2014_012	19	F	start_even_right	2	7	291	9	right	829.83	1	1	1
cipora2014_012	19	F	start_even_right	2	7	292	6	left	823.6	1	1	1
cipora2014_012	19	F	start_even_right	2	7	293	7	right	802.77	1	1	1
cipora2014_012	19	F	start_even_right	2	7	294	2	left	782.92	1	1	1
cipora2014_012	19	F	start_even_right	2	7	295	8	left	1066.91	1	1	1
cipora2014_012	19	F	start_even_right	2	7	296	3	right	715.76	1	1	1
cipora2014_012	19	F	start_even_right	2	8	297	8	left	842.96	1	1	1
cipora2014_012	19	F	start_even_right	2	8	298	9	right	693.07	1	1	1
cipora2014_012	19	F	start_even_right	2	8	299	2	left	708.85	1	1	1
cipora2014_012	19	F	start_even_right	2	8	300	7	right	2000	0	0	0
cipora2014_012	19	F	start_even_right	2	8	301	3	right	670.75	1	1	1
cipora2014_012	19	F	start_even_right	2	8	302	4	left	1886.98	1	1	0
cipora2014_012	19	F	start_even_right	2	8	303	1	right	702.76	1	1	1
cipora2014_012	19	F	start_even_right	2	8	304	6	left	1262.71	1	1	0
cipora2014_012	19	F	start_even_right	2	9	305	8	left	567.73	1	1	1
cipora2014_012	19	F	start_even_right	2	9	306	4	left	892.88	1	1	1
cipora2014_012	19	F	start_even_right	2	9	307	6	left	563.96	1	1	1
cipora2014_012	19	F	start_even_right	2	9	308	3	right	553.09	1	1	1
cipora2014_012	19	F	start_even_right	2	9	309	2	left	735.79	1	1	1
cipora2014_012	19	F	start_even_right	2	9	310	9	right	1438.16	1	1	0
cipora2014_012	19	F	start_even_right	2	9	311	7	right	1215.9	0	0	0
cipora2014_012	19	F	start_even_right	2	9	312	1	right	842.6	1	1	1
cipora2014_012	19	F	start_even_right	2	10	313	9	right	660.56	1	1	1
cipora2014_012	19	F	start_even_right	2	10	314	3	right	678.6	1	1	1
cipora2014_012	19	F	start_even_right	2	10	315	4	left	534.34	1	1	1
cipora2014_012	19	F	start_even_right	2	10	316	6	left	557.8	1	1	1
cipora2014_012	19	F	start_even_right	2	10	317	1	right	674.92	1	1	1
cipora2014_012	19	F	start_even_right	2	10	318	7	right	579.46	1	1	1
cipora2014_012	19	F	start_even_right	2	10	319	2	left	599.77	1	1	1
cipora2014_012	19	F	start_even_right	2	10	320	8	left	763.65	1	1	1
cipora2014_012	19	F	start_even_right	2	11	321	8	left	520.42	1	1	1
cipora2014_012	19	F	start_even_right	2	11	322	6	left	576.24	1	1	1
cipora2014_012	19	F	start_even_right	2	11	323	4	left	565.23	1	1	1
cipora2014_012	19	F	start_even_right	2	11	324	1	right	793.74	1	1	1
cipora2014_012	19	F	start_even_right	2	11	325	2	left	773.93	1	1	1
cipora2014_012	19	F	start_even_right	2	11	326	7	right	578.58	1	1	1
cipora2014_012	19	F	start_even_right	2	11	327	3	right	1399.62	1	1	0
cipora2014_012	19	F	start_even_right	2	11	328	9	right	522.5	1	1	1
cipora2014_012	19	F	start_even_right	2	12	329	6	left	738.37	1	1	1
cipora2014_012	19	F	start_even_right	2	12	330	8	left	672.08	0	0	0
cipora2014_012	19	F	start_even_right	2	12	331	1	right	898.05	0	0	0
cipora2014_012	19	F	start_even_right	2	12	332	2	left	1257.77	1	1	0
cipora2014_012	19	F	start_even_right	2	12	333	3	right	643.05	1	1	1
cipora2014_012	19	F	start_even_right	2	12	334	4	left	1205.05	1	1	1
cipora2014_012	19	F	start_even_right	2	12	335	7	right	944.08	1	1	1
cipora2014_012	19	F	start_even_right	2	12	336	9	right	933.25	1	1	1
cipora2014_012	19	F	start_even_right	2	13	337	4	left	827.97	0	0	0
cipora2014_012	19	F	start_even_right	2	13	338	6	left	550.12	0	0	0
cipora2014_012	19	F	start_even_right	2	13	339	8	left	508.2	0	0	0
cipora2014_012	19	F	start_even_right	2	13	340	9	right	787.58	0	0	0
cipora2014_012	19	F	start_even_right	2	13	341	3	right	1419.35	1	1	0
cipora2014_012	19	F	start_even_right	2	13	342	1	right	882.82	1	1	1
cipora2014_012	19	F	start_even_right	2	13	343	7	right	682.93	1	1	1
cipora2014_012	19	F	start_even_right	2	13	344	2	left	1099.29	0	0	0
cipora2014_012	19	F	start_even_right	2	14	345	6	left	907.25	1	1	1
cipora2014_012	19	F	start_even_right	2	14	346	9	right	673.99	1	1	1
cipora2014_012	19	F	start_even_right	2	14	347	8	left	1843.36	1	1	0
cipora2014_012	19	F	start_even_right	2	14	348	2	left	483.44	1	1	1
cipora2014_012	19	F	start_even_right	2	14	349	3	right	588.26	1	1	1
cipora2014_012	19	F	start_even_right	2	14	350	1	right	785.37	1	1	1
cipora2014_012	19	F	start_even_right	2	14	351	4	left	509.79	1	1	1
cipora2014_012	19	F	start_even_right	2	14	352	7	right	596.84	1	1	1
cipora2014_012	19	F	start_even_right	2	15	353	9	right	1544.93	1	1	0
cipora2014_012	19	F	start_even_right	2	15	354	4	left	790.07	1	1	1
cipora2014_012	19	F	start_even_right	2	15	355	6	left	674.68	1	1	1
cipora2014_012	19	F	start_even_right	2	15	356	2	left	610.53	1	1	1
cipora2014_012	19	F	start_even_right	2	15	357	1	right	774.28	1	1	1
cipora2014_012	19	F	start_even_right	2	15	358	7	right	594.33	1	1	1
cipora2014_012	19	F	start_even_right	2	15	359	3	right	550.08	1	1	1
cipora2014_012	19	F	start_even_right	2	15	360	8	left	1036.48	1	1	1
cipora2014_012	19	F	start_even_right	2	16	361	3	right	1294.84	1	1	0
cipora2014_012	19	F	start_even_right	2	16	362	4	left	758.09	1	1	1
cipora2014_012	19	F	start_even_right	2	16	363	8	left	611.67	1	1	1
cipora2014_012	19	F	start_even_right	2	16	364	7	right	886.58	1	1	1
cipora2014_012	19	F	start_even_right	2	16	365	1	right	1182.81	1	1	1
cipora2014_012	19	F	start_even_right	2	16	366	9	right	586.99	1	1	1
cipora2014_012	19	F	start_even_right	2	16	367	6	left	480.36	1	1	1
cipora2014_012	19	F	start_even_right	2	16	368	2	left	552.99	1	1	1
cipora2014_012	19	F	start_even_right	2	17	369	9	right	558.78	1	1	1
cipora2014_012	19	F	start_even_right	2	17	370	3	right	1091.95	1	1	1
cipora2014_012	19	F	start_even_right	2	17	371	8	left	788.57	1	1	1
cipora2014_012	19	F	start_even_right	2	17	372	1	right	1072.51	1	1	1
cipora2014_012	19	F	start_even_right	2	17	373	2	left	721.4	1	1	1
cipora2014_012	19	F	start_even_right	2	17	374	7	right	912.03	1	1	1
cipora2014_012	19	F	start_even_right	2	17	375	4	left	695.4	1	1	1
cipora2014_012	19	F	start_even_right	2	17	376	6	left	551.13	1	1	1
cipora2014_012	19	F	start_even_right	2	18	377	9	right	684.82	1	1	1
cipora2014_012	19	F	start_even_right	2	18	378	2	left	717.29	1	1	1
cipora2014_012	19	F	start_even_right	2	18	379	3	right	588.6	1	1	1
cipora2014_012	19	F	start_even_right	2	18	380	8	left	1505.43	1	1	0
cipora2014_012	19	F	start_even_right	2	18	381	7	right	544.76	1	1	1
cipora2014_012	19	F	start_even_right	2	18	382	1	right	870.99	1	1	1
cipora2014_012	19	F	start_even_right	2	18	383	4	left	639.97	1	1	1
cipora2014_012	19	F	start_even_right	2	18	384	6	left	562.4	1	1	1
cipora2014_012	19	F	start_even_right	2	19	385	9	right	800.49	1	1	1
cipora2014_012	19	F	start_even_right	2	19	386	7	right	755.34	1	1	1
cipora2014_012	19	F	start_even_right	2	19	387	4	left	944.87	1	1	1
cipora2014_012	19	F	start_even_right	2	19	388	8	left	470.26	1	1	1
cipora2014_012	19	F	start_even_right	2	19	389	6	left	608.36	1	1	1
cipora2014_012	19	F	start_even_right	2	19	390	2	left	484.01	1	1	1
cipora2014_012	19	F	start_even_right	2	19	391	1	right	668.94	1	1	1
cipora2014_012	19	F	start_even_right	2	19	392	3	right	1069.76	1	1	1
cipora2014_012	19	F	start_even_right	2	20	393	3	right	1118.91	1	1	1
cipora2014_012	19	F	start_even_right	2	20	394	6	left	637.72	1	1	1
cipora2014_012	19	F	start_even_right	2	20	395	8	left	640.24	1	1	1
cipora2014_012	19	F	start_even_right	2	20	396	9	right	642.76	1	1	1
cipora2014_012	19	F	start_even_right	2	20	397	1	right	900.99	1	1	1
cipora2014_012	19	F	start_even_right	2	20	398	4	left	1036.02	1	1	1
cipora2014_012	19	F	start_even_right	2	20	399	2	left	702.56	1	1	1
cipora2014_012	19	F	start_even_right	2	20	400	7	right	766.37	1	1	1
cipora2014_012	19	F	start_even_right	2	21	401	6	left	1051.4	1	1	1
cipora2014_012	19	F	start_even_right	2	21	402	2	left	493.26	1	1	1
cipora2014_012	19	F	start_even_right	2	21	403	4	left	564.77	1	1	1
cipora2014_012	19	F	start_even_right	2	21	404	9	right	666.26	1	1	1
cipora2014_012	19	F	start_even_right	2	21	405	1	right	939.2	1	1	1
cipora2014_012	19	F	start_even_right	2	21	406	8	left	610.18	1	1	1
cipora2014_012	19	F	start_even_right	2	21	407	7	right	580.49	1	1	1
cipora2014_012	19	F	start_even_right	2	21	408	3	right	825.49	1	1	1
cipora2014_012	19	F	start_even_right	2	22	409	2	left	772.35	1	1	1
cipora2014_012	19	F	start_even_right	2	22	410	9	right	544.64	1	1	1
cipora2014_012	19	F	start_even_right	2	22	411	4	left	945.11	1	1	1
cipora2014_012	19	F	start_even_right	2	22	412	1	right	636.52	1	1	1
cipora2014_012	19	F	start_even_right	2	22	413	3	right	1247.35	0	0	0
cipora2014_012	19	F	start_even_right	2	22	414	6	left	632.56	1	1	1
cipora2014_012	19	F	start_even_right	2	22	415	8	left	570.68	1	1	1
cipora2014_012	19	F	start_even_right	2	22	416	7	right	640.01	1	1	1
cipora2014_012	19	F	start_even_right	2	23	417	4	left	1411	1	1	0
cipora2014_012	19	F	start_even_right	2	23	418	1	right	709.68	1	1	1
cipora2014_012	19	F	start_even_right	2	23	419	3	right	676.48	1	1	1
cipora2014_012	19	F	start_even_right	2	23	420	6	left	693.48	0	0	0
cipora2014_012	19	F	start_even_right	2	23	421	2	left	596.94	0	0	0
cipora2014_012	19	F	start_even_right	2	23	422	9	right	632.82	0	0	0
cipora2014_012	19	F	start_even_right	2	23	423	7	right	1547.52	1	1	0
cipora2014_012	19	F	start_even_right	2	23	424	8	left	692.11	1	1	1
cipora2014_012	19	F	start_even_right	2	24	425	4	left	536.02	1	1	1
cipora2014_012	19	F	start_even_right	2	24	426	8	left	607.45	1	1	1
cipora2014_012	19	F	start_even_right	2	24	427	6	left	546.54	1	1	1
cipora2014_012	19	F	start_even_right	2	24	428	9	right	695.94	1	1	1
cipora2014_012	19	F	start_even_right	2	24	429	2	left	1463.76	1	1	0
cipora2014_012	19	F	start_even_right	2	24	430	3	right	680.97	1	1	1
cipora2014_012	19	F	start_even_right	2	24	431	1	right	601.29	1	1	1
cipora2014_012	19	F	start_even_right	2	24	432	7	right	621.53	1	1	1
cipora2014_012	19	F	start_even_right	2	25	433	7	right	528.41	1	1	1
cipora2014_012	19	F	start_even_right	2	25	434	4	left	774.49	1	1	1
cipora2014_012	19	F	start_even_right	2	25	435	6	left	611.33	1	1	1
cipora2014_012	19	F	start_even_right	2	25	436	2	left	710.6	1	1	1
cipora2014_012	19	F	start_even_right	2	25	437	9	right	534.04	1	1	1
cipora2014_012	19	F	start_even_right	2	25	438	3	right	924.64	1	1	1
cipora2014_012	19	F	start_even_right	2	25	439	1	right	467.84	1	1	1
cipora2014_012	19	F	start_even_right	2	25	440	8	left	509.2	1	1	1
cipora2014_012	19	F	start_even_right	2	26	441	1	right	580.62	1	1	1
cipora2014_012	19	F	start_even_right	2	26	442	3	right	728.85	1	1	1
cipora2014_012	19	F	start_even_right	2	26	443	8	left	566.92	1	1	1
cipora2014_012	19	F	start_even_right	2	26	444	2	left	508.21	1	1	1
cipora2014_012	19	F	start_even_right	2	26	445	7	right	548.38	1	1	1
cipora2014_012	19	F	start_even_right	2	26	446	9	right	1082.55	1	1	1
cipora2014_012	19	F	start_even_right	2	26	447	6	left	570.29	1	1	1
cipora2014_012	19	F	start_even_right	2	26	448	4	left	543.83	1	1	1
cipora2014_012	19	F	start_even_right	2	27	449	1	right	629.66	1	1	1
cipora2014_012	19	F	start_even_right	2	27	450	7	right	696.64	1	1	1
cipora2014_012	19	F	start_even_right	2	27	451	8	left	616.79	1	1	1
cipora2014_012	19	F	start_even_right	2	27	452	9	right	731.64	1	1	1
cipora2014_012	19	F	start_even_right	2	27	453	2	left	698.58	1	1	1
cipora2014_012	19	F	start_even_right	2	27	454	4	left	474.2	1	1	1
cipora2014_012	19	F	start_even_right	2	27	455	3	right	674.79	1	1	1
cipora2014_012	19	F	start_even_right	2	27	456	6	left	611.63	1	1	1
cipora2014_012	19	F	start_even_right	2	28	457	4	left	710.96	1	1	1
cipora2014_012	19	F	start_even_right	2	28	458	7	right	610.48	1	1	1
cipora2014_012	19	F	start_even_right	2	28	459	1	right	625.69	1	1	1
cipora2014_012	19	F	start_even_right	2	28	460	9	right	875.29	1	1	1
cipora2014_012	19	F	start_even_right	2	28	461	2	left	787.71	1	1	1
cipora2014_012	19	F	start_even_right	2	28	462	6	left	464.3	1	1	1
cipora2014_012	19	F	start_even_right	2	28	463	8	left	457.94	1	1	1
cipora2014_012	19	F	start_even_right	2	28	464	3	right	818.7	1	1	1
cipora2014_012	19	F	start_even_right	2	29	465	4	left	622.06	1	1	1
cipora2014_012	19	F	start_even_right	2	29	466	3	right	913.65	1	1	1
cipora2014_012	19	F	start_even_right	2	29	467	9	right	871.9	1	1	1
cipora2014_012	19	F	start_even_right	2	29	468	7	right	497.18	1	1	1
cipora2014_012	19	F	start_even_right	2	29	469	6	left	761.21	1	1	1
cipora2014_012	19	F	start_even_right	2	29	470	8	left	566.7	1	1	1
cipora2014_012	19	F	start_even_right	2	29	471	2	left	571.54	1	1	1
cipora2014_012	19	F	start_even_right	2	29	472	1	right	688.57	1	1	1
cipora2014_012	19	F	start_even_right	2	30	473	7	right	817.94	1	1	1
cipora2014_012	19	F	start_even_right	2	30	474	8	left	684.76	1	1	1
cipora2014_012	19	F	start_even_right	2	30	475	3	right	829.57	1	1	1
cipora2014_012	19	F	start_even_right	2	30	476	9	right	1079.28	1	1	1
cipora2014_012	19	F	start_even_right	2	30	477	2	left	599.95	1	1	1
cipora2014_012	19	F	start_even_right	2	30	478	4	left	581.13	1	1	1
cipora2014_012	19	F	start_even_right	2	30	479	1	right	608.41	1	1	1
cipora2014_012	19	F	start_even_right	2	30	480	6	left	531.8	1	1	1
cipora2014_015	24	F	start_even_right	1	1	1	4	right	528.7	1	1	1
cipora2014_015	24	F	start_even_right	1	1	2	8	right	551.23	1	1	1
cipora2014_015	24	F	start_even_right	1	1	3	9	left	461.35	1	1	1
cipora2014_015	24	F	start_even_right	1	1	4	7	left	518.41	1	1	1
cipora2014_015	24	F	start_even_right	1	1	5	1	left	509.75	1	1	1
cipora2014_015	24	F	start_even_right	1	1	6	3	left	517.76	1	1	1
cipora2014_015	24	F	start_even_right	1	1	7	6	right	412.39	1	1	1
cipora2014_015	24	F	start_even_right	1	1	8	2	right	552.66	1	1	1
cipora2014_015	24	F	start_even_right	1	2	9	8	right	461.9	1	1	1
cipora2014_015	24	F	start_even_right	1	2	10	3	left	471.98	1	1	1
cipora2014_015	24	F	start_even_right	1	2	11	4	right	529.01	1	1	1
cipora2014_015	24	F	start_even_right	1	2	12	1	left	583.69	1	1	1
cipora2014_015	24	F	start_even_right	1	2	13	2	right	476.16	1	1	1
cipora2014_015	24	F	start_even_right	1	2	14	7	left	500.9	1	1	1
cipora2014_015	24	F	start_even_right	1	2	15	6	right	413.11	1	1	1
cipora2014_015	24	F	start_even_right	1	2	16	9	left	504.72	1	1	1
cipora2014_015	24	F	start_even_right	1	3	17	4	right	560.57	1	1	1
cipora2014_015	24	F	start_even_right	1	3	18	8	right	517.5	1	1	1
cipora2014_015	24	F	start_even_right	1	3	19	3	left	493.25	1	1	1
cipora2014_015	24	F	start_even_right	1	3	20	7	left	837.23	1	1	1
cipora2014_015	24	F	start_even_right	1	3	21	6	right	559.48	1	1	1
cipora2014_015	24	F	start_even_right	1	3	22	2	right	436.35	1	1	1
cipora2014_015	24	F	start_even_right	1	3	23	9	left	479.73	1	1	1
cipora2014_015	24	F	start_even_right	1	3	24	1	left	504.58	1	1	1
cipora2014_015	24	F	start_even_right	1	4	25	6	right	656.14	1	1	1
cipora2014_015	24	F	start_even_right	1	4	26	3	left	498.26	1	1	1
cipora2014_015	24	F	start_even_right	1	4	27	1	left	489.89	1	1	1
cipora2014_015	24	F	start_even_right	1	4	28	7	left	770.48	1	1	1
cipora2014_015	24	F	start_even_right	1	4	29	2	right	528.18	1	1	1
cipora2014_015	24	F	start_even_right	1	4	30	8	right	823.19	1	1	1
cipora2014_015	24	F	start_even_right	1	4	31	9	left	705.68	1	1	1
cipora2014_015	24	F	start_even_right	1	4	32	4	right	630.62	1	1	1
cipora2014_015	24	F	start_even_right	1	5	33	6	right	708.43	1	1	1
cipora2014_015	24	F	start_even_right	1	5	34	7	left	547.25	1	1	1
cipora2014_015	24	F	start_even_right	1	5	35	9	left	809.15	1	1	1
cipora2014_015	24	F	start_even_right	1	5	36	4	right	692.59	1	1	1
cipora2014_015	24	F	start_even_right	1	5	37	2	right	515.89	1	1	1
cipora2014_015	24	F	start_even_right	1	5	38	3	left	507.45	1	1	1
cipora2014_015	24	F	start_even_right	1	5	39	1	left	547.52	1	1	1
cipora2014_015	24	F	start_even_right	1	5	40	8	right	473.49	1	1	1
cipora2014_015	24	F	start_even_right	1	6	41	6	right	434.78	1	1	1
cipora2014_015	24	F	start_even_right	1	6	42	9	left	567.08	1	1	1
cipora2014_015	24	F	start_even_right	1	6	43	8	right	530.76	1	1	1
cipora2014_015	24	F	start_even_right	1	6	44	3	left	713.46	1	1	1
cipora2014_015	24	F	start_even_right	1	6	45	4	right	712.69	1	1	1
cipora2014_015	24	F	start_even_right	1	6	46	7	left	583.88	1	1	1
cipora2014_015	24	F	start_even_right	1	6	47	2	right	460.85	1	1	1
cipora2014_015	24	F	start_even_right	1	6	48	1	left	534.53	1	1	1
cipora2014_015	24	F	start_even_right	1	7	49	4	right	540.42	1	1	1
cipora2014_015	24	F	start_even_right	1	7	50	7	left	473.09	1	1	1
cipora2014_015	24	F	start_even_right	1	7	51	2	right	460.71	1	1	1
cipora2014_015	24	F	start_even_right	1	7	52	9	left	629.95	1	1	1
