part.code	age	gender	block.order	block.no	trial.no	number	resp.side	rt	correct.experimental	filter.correct.exp.antic	filter.seq
cipora_2009_001	23	F	start_even_right	1	1	3	left	564	1	1	1
cipora_2009_001	23	F	start_even_right	1	2	6	right	529	1	1	1
cipora_2009_001	23	F	start_even_right	1	3	7	left	545	1	1	1
cipora_2009_001	23	F	start_even_right	1	4	1	left	585	1	1	1
cipora_2009_001	23	F	start_even_right	1	5	4	right	513	1	1	1
cipora_2009_001	23	F	start_even_right	1	6	2	right	521	1	1	1
cipora_2009_001	23	F	start_even_right	1	7	2	right	479	1	1	1
cipora_2009_001	23	F	start_even_right	1	8	6	right	471	1	1	1
cipora_2009_001	23	F	start_even_right	1	9	3	left	521	1	1	1
cipora_2009_001	23	F	start_even_right	1	10	8	right	425	1	1	1
cipora_2009_001	23	F	start_even_right	1	11	9	left	625	1	1	1
cipora_2009_001	23	F	start_even_right	1	12	9	left	524	1	1	1
cipora_2009_001	23	F	start_even_right	1	13	7	left	466	1	1	1
cipora_2009_001	23	F	start_even_right	1	14	8	right	439	1	1	1
cipora_2009_001	23	F	start_even_right	1	15	3	left	458	1	1	1
cipora_2009_001	23	F	start_even_right	1	16	7	left	425	1	1	1
cipora_2009_001	23	F	start_even_right	1	17	8	right	450	1	1	1
cipora_2009_001	23	F	start_even_right	1	18	8	right	553	1	1	1
cipora_2009_001	23	F	start_even_right	1	19	4	right	422	1	1	1
cipora_2009_001	23	F	start_even_right	1	20	2	right	480	1	1	1
cipora_2009_001	23	F	start_even_right	1	21	2	right	556	1	1	1
cipora_2009_001	23	F	start_even_right	1	22	8	right	414	1	1	1
cipora_2009_001	23	F	start_even_right	1	23	4	right	562	1	1	1
cipora_2009_001	23	F	start_even_right	1	24	2	right	865	1	1	0
cipora_2009_001	23	F	start_even_right	1	25	1	left	645	1	1	1
cipora_2009_001	23	F	start_even_right	1	26	7	left	571	1	1	1
cipora_2009_001	23	F	start_even_right	1	27	9	left	579	0	0	0
cipora_2009_001	23	F	start_even_right	1	28	2	right	1365	1	1	0
cipora_2009_001	23	F	start_even_right	1	29	9	left	953	1	1	0
cipora_2009_001	23	F	start_even_right	1	30	7	left	702	1	1	1
cipora_2009_001	23	F	start_even_right	1	31	6	right	579	1	1	1
cipora_2009_001	23	F	start_even_right	1	32	8	right	501	1	1	1
cipora_2009_001	23	F	start_even_right	1	33	7	left	546	1	1	1
cipora_2009_001	23	F	start_even_right	1	34	3	left	537	1	1	1
cipora_2009_001	23	F	start_even_right	1	35	6	right	452	0	0	0
cipora_2009_001	23	F	start_even_right	1	36	2	right	612	1	1	1
cipora_2009_001	23	F	start_even_right	1	37	7	left	576	1	1	1
cipora_2009_001	23	F	start_even_right	1	38	9	left	667	1	1	1
cipora_2009_001	23	F	start_even_right	1	39	9	left	540	1	1	1
cipora_2009_001	23	F	start_even_right	1	40	1	left	573	1	1	1
cipora_2009_001	23	F	start_even_right	1	41	1	left	524	1	1	1
cipora_2009_001	23	F	start_even_right	1	42	3	left	681	1	1	1
cipora_2009_001	23	F	start_even_right	1	43	9	left	1171	0	0	0
cipora_2009_001	23	F	start_even_right	1	44	2	right	716	1	1	1
cipora_2009_001	23	F	start_even_right	1	45	1	left	529	1	1	1
cipora_2009_001	23	F	start_even_right	1	46	8	right	479	1	1	1
cipora_2009_001	23	F	start_even_right	1	47	1	left	584	1	1	1
cipora_2009_001	23	F	start_even_right	1	48	6	right	485	1	1	1
cipora_2009_001	23	F	start_even_right	1	49	6	right	603	1	1	1
cipora_2009_001	23	F	start_even_right	1	50	7	left	683	1	1	1
cipora_2009_001	23	F	start_even_right	1	51	3	left	791	1	1	0
cipora_2009_001	23	F	start_even_right	1	52	1	left	530	1	1	1
cipora_2009_001	23	F	start_even_right	1	53	2	right	480	1	1	1
cipora_2009_001	23	F	start_even_right	1	54	3	left	568	1	1	1
cipora_2009_001	23	F	start_even_right	1	55	8	right	515	1	1	1
cipora_2009_001	23	F	start_even_right	1	56	6	right	598	1	1	1
cipora_2009_001	23	F	start_even_right	1	57	9	left	688	1	1	1
cipora_2009_001	23	F	start_even_right	1	58	4	right	477	1	1	1
cipora_2009_001	23	F	start_even_right	1	59	4	right	837	1	1	0
cipora_2009_001	23	F	start_even_right	1	60	2	right	639	1	1	1
cipora_2009_001	23	F	start_even_right	1	61	7	left	686	1	1	1
cipora_2009_001	23	F	start_even_right	1	62	3	left	606	1	1	1
cipora_2009_001	23	F	start_even_right	1	63	6	right	499	1	1	1
cipora_2009_001	23	F	start_even_right	1	64	1	left	535	1	1	1
cipora_2009_001	23	F	start_even_right	1	65	9	left	697	1	1	1
cipora_2009_001	23	F	start_even_right	1	66	1	left	540	1	1	1
cipora_2009_001	23	F	start_even_right	1	67	4	right	535	1	1	1
cipora_2009_001	23	F	start_even_right	1	68	8	right	400	1	1	1
cipora_2009_001	23	F	start_even_right	1	69	4	right	417	1	1	1
cipora_2009_001	23	F	start_even_right	1	70	3	left	474	1	1	1
cipora_2009_001	23	F	start_even_right	1	71	7	left	411	1	1	1
cipora_2009_001	23	F	start_even_right	1	72	4	right	552	1	1	1
cipora_2009_001	23	F	start_even_right	1	73	2	right	384	1	1	1
cipora_2009_001	23	F	start_even_right	1	74	7	left	529	1	1	1
cipora_2009_001	23	F	start_even_right	1	75	8	right	466	1	1	1
cipora_2009_001	23	F	start_even_right	1	76	3	left	499	1	1	1
cipora_2009_001	23	F	start_even_right	1	77	8	right	504	1	1	1
cipora_2009_001	23	F	start_even_right	1	78	9	left	557	1	1	1
cipora_2009_001	23	F	start_even_right	1	79	6	right	928	1	1	0
cipora_2009_001	23	F	start_even_right	1	80	6	right	463	1	1	1
cipora_2009_001	23	F	start_even_right	1	81	9	left	758	1	1	1
cipora_2009_001	23	F	start_even_right	1	82	3	left	604	1	1	1
cipora_2009_001	23	F	start_even_right	1	83	4	right	409	1	1	1
cipora_2009_001	23	F	start_even_right	1	84	4	right	373	1	1	1
cipora_2009_001	23	F	start_even_right	1	85	8	right	472	1	1	1
cipora_2009_001	23	F	start_even_right	1	86	6	right	395	1	1	1
cipora_2009_001	23	F	start_even_right	1	87	2	right	373	1	1	1
cipora_2009_001	23	F	start_even_right	1	88	1	left	576	1	1	1
cipora_2009_001	23	F	start_even_right	1	89	1	left	491	1	1	1
cipora_2009_001	23	F	start_even_right	1	90	6	right	664	1	1	1
cipora_2009_001	23	F	start_even_right	1	91	9	left	604	1	1	1
cipora_2009_001	23	F	start_even_right	1	92	1	left	590	1	1	1
cipora_2009_001	23	F	start_even_right	1	93	4	right	466	1	1	1
cipora_2009_001	23	F	start_even_right	1	94	4	right	480	1	1	1
cipora_2009_001	23	F	start_even_right	1	95	3	left	537	1	1	1
cipora_2009_001	23	F	start_even_right	1	96	7	left	656	1	1	1
cipora_2009_001	23	F	start_even_right	2	97	1	right	584	1	1	1
cipora_2009_001	23	F	start_even_right	2	98	7	right	612	1	1	1
cipora_2009_001	23	F	start_even_right	2	99	8	left	554	1	1	1
cipora_2009_001	23	F	start_even_right	2	100	6	left	565	1	1	1
cipora_2009_001	23	F	start_even_right	2	101	4	left	474	1	1	1
cipora_2009_001	23	F	start_even_right	2	102	3	right	510	1	1	1
cipora_2009_001	23	F	start_even_right	2	103	1	right	559	1	1	1
cipora_2009_001	23	F	start_even_right	2	104	1	right	441	1	1	1
cipora_2009_001	23	F	start_even_right	2	105	3	right	537	1	1	1
cipora_2009_001	23	F	start_even_right	2	106	7	right	408	1	1	1
cipora_2009_001	23	F	start_even_right	2	107	9	right	612	1	1	1
cipora_2009_001	23	F	start_even_right	2	108	2	left	397	1	1	1
cipora_2009_001	23	F	start_even_right	2	109	1	right	488	1	1	1
cipora_2009_001	23	F	start_even_right	2	110	9	right	663	1	1	1
cipora_2009_001	23	F	start_even_right	2	111	6	left	498	1	1	1
cipora_2009_001	23	F	start_even_right	2	112	4	left	568	1	1	1
cipora_2009_001	23	F	start_even_right	2	113	4	left	472	1	1	1
cipora_2009_001	23	F	start_even_right	2	114	8	left	474	1	1	1
cipora_2009_001	23	F	start_even_right	2	115	6	left	375	1	1	1
cipora_2009_001	23	F	start_even_right	2	116	3	right	494	1	1	1
cipora_2009_001	23	F	start_even_right	2	117	4	left	455	1	1	1
cipora_2009_001	23	F	start_even_right	2	118	9	right	559	1	1	1
cipora_2009_001	23	F	start_even_right	2	119	4	left	408	1	1	1
cipora_2009_001	23	F	start_even_right	2	120	3	right	438	1	1	1
cipora_2009_001	23	F	start_even_right	2	121	6	left	589	1	1	1
cipora_2009_001	23	F	start_even_right	2	122	3	right	516	1	1	1
cipora_2009_001	23	F	start_even_right	2	123	2	left	582	1	1	1
cipora_2009_001	23	F	start_even_right	2	124	3	right	337	1	1	1
cipora_2009_001	23	F	start_even_right	2	125	7	right	593	1	1	1
cipora_2009_001	23	F	start_even_right	2	126	3	right	513	1	1	1
cipora_2009_001	23	F	start_even_right	2	127	8	left	446	1	1	1
cipora_2009_001	23	F	start_even_right	2	128	1	right	541	1	1	1
cipora_2009_001	23	F	start_even_right	2	129	3	right	667	1	1	1
cipora_2009_001	23	F	start_even_right	2	130	1	right	755	1	1	1
cipora_2009_001	23	F	start_even_right	2	131	7	right	568	1	1	1
cipora_2009_001	23	F	start_even_right	2	132	2	left	378	1	1	1
cipora_2009_001	23	F	start_even_right	2	133	1	right	598	1	1	1
cipora_2009_001	23	F	start_even_right	2	134	2	left	441	1	1	1
cipora_2009_001	23	F	start_even_right	2	135	9	right	480	1	1	1
cipora_2009_001	23	F	start_even_right	2	136	2	left	388	1	1	1
cipora_2009_001	23	F	start_even_right	2	137	8	left	557	1	1	1
cipora_2009_001	23	F	start_even_right	2	138	8	left	475	1	1	1
cipora_2009_001	23	F	start_even_right	2	139	2	left	436	1	1	1
cipora_2009_001	23	F	start_even_right	2	140	6	left	524	1	1	1
cipora_2009_001	23	F	start_even_right	2	141	9	right	596	1	1	1
cipora_2009_001	23	F	start_even_right	2	142	4	left	433	1	1	1
cipora_2009_001	23	F	start_even_right	2	143	2	left	444	1	1	1
cipora_2009_001	23	F	start_even_right	2	144	1	right	483	1	1	1
cipora_2009_001	23	F	start_even_right	2	145	2	left	446	1	1	1
cipora_2009_001	23	F	start_even_right	2	146	2	left	414	1	1	1
cipora_2009_001	23	F	start_even_right	2	147	2	left	446	1	1	1
cipora_2009_001	23	F	start_even_right	2	148	3	right	529	1	1	1
cipora_2009_001	23	F	start_even_right	2	149	1	right	584	1	1	1
cipora_2009_001	23	F	start_even_right	2	150	8	left	403	0	0	0
cipora_2009_001	23	F	start_even_right	2	151	8	left	559	1	1	1
cipora_2009_001	23	F	start_even_right	2	152	9	right	425	1	1	1
cipora_2009_001	23	F	start_even_right	2	153	6	left	516	1	1	1
cipora_2009_001	23	F	start_even_right	2	154	7	right	514	1	1	1
cipora_2009_001	23	F	start_even_right	2	155	7	right	375	1	1	1
cipora_2009_001	23	F	start_even_right	2	156	7	right	364	1	1	1
cipora_2009_001	23	F	start_even_right	2	157	7	right	413	1	1	1
cipora_2009_001	23	F	start_even_right	2	158	2	left	494	1	1	1
cipora_2009_001	23	F	start_even_right	2	159	8	left	488	1	1	1
cipora_2009_001	23	F	start_even_right	2	160	7	right	546	1	1	1
cipora_2009_001	23	F	start_even_right	2	161	1	right	553	1	1	1
cipora_2009_001	23	F	start_even_right	2	162	6	left	477	1	1	1
cipora_2009_001	23	F	start_even_right	2	163	2	left	576	1	1	1
cipora_2009_001	23	F	start_even_right	2	164	6	left	457	1	1	1
cipora_2009_001	23	F	start_even_right	2	165	4	left	409	1	1	1
cipora_2009_001	23	F	start_even_right	2	166	3	right	491	1	1	1
cipora_2009_001	23	F	start_even_right	2	167	9	right	397	0	0	0
cipora_2009_001	23	F	start_even_right	2	168	1	right	584	1	1	1
cipora_2009_001	23	F	start_even_right	2	169	8	left	477	1	1	1
cipora_2009_001	23	F	start_even_right	2	170	6	left	486	1	1	1
cipora_2009_001	23	F	start_even_right	2	171	3	right	452	1	1	1
cipora_2009_001	23	F	start_even_right	2	172	7	right	485	1	1	1
cipora_2009_001	23	F	start_even_right	2	173	9	right	604	1	1	1
cipora_2009_001	23	F	start_even_right	2	174	6	left	617	1	1	1
cipora_2009_001	23	F	start_even_right	2	175	6	left	469	1	1	1
cipora_2009_001	23	F	start_even_right	2	176	4	left	503	1	1	1
cipora_2009_001	23	F	start_even_right	2	177	8	left	491	1	1	1
cipora_2009_001	23	F	start_even_right	2	178	9	right	483	1	1	1
cipora_2009_001	23	F	start_even_right	2	179	4	left	419	1	1	1
cipora_2009_001	23	F	start_even_right	2	180	9	right	441	0	0	0
cipora_2009_001	23	F	start_even_right	2	181	7	right	601	1	1	1
cipora_2009_001	23	F	start_even_right	2	182	3	right	636	1	1	1
cipora_2009_001	23	F	start_even_right	2	183	1	right	472	1	1	1
cipora_2009_001	23	F	start_even_right	2	184	6	left	494	1	1	1
cipora_2009_001	23	F	start_even_right	2	185	7	right	523	1	1	1
cipora_2009_001	23	F	start_even_right	2	186	4	left	436	1	1	1
cipora_2009_001	23	F	start_even_right	2	187	4	left	413	1	1	1
cipora_2009_001	23	F	start_even_right	2	188	4	left	417	1	1	1
cipora_2009_001	23	F	start_even_right	2	189	8	left	497	1	1	1
cipora_2009_001	23	F	start_even_right	2	190	9	right	526	1	1	1
cipora_2009_001	23	F	start_even_right	2	191	9	right	480	1	1	1
cipora_2009_001	23	F	start_even_right	2	192	8	left	530	1	1	1
cipora_2009_003	21	F	start_even_right	1	1	8	right	408	1	1	1
cipora_2009_003	21	F	start_even_right	1	2	3	left	493	1	1	1
cipora_2009_003	21	F	start_even_right	1	3	8	right	438	1	1	1
cipora_2009_003	21	F	start_even_right	1	4	7	left	392	1	1	1
cipora_2009_003	21	F	start_even_right	1	5	1	left	417	1	1	1
cipora_2009_003	21	F	start_even_right	1	6	8	right	329	1	1	1
cipora_2009_003	21	F	start_even_right	1	7	9	left	377	1	1	1
cipora_2009_003	21	F	start_even_right	1	8	8	right	494	1	1	1
cipora_2009_003	21	F	start_even_right	1	9	9	left	359	0	0	0
cipora_2009_003	21	F	start_even_right	1	10	9	left	463	1	1	1
cipora_2009_003	21	F	start_even_right	1	11	4	right	670	1	1	1
cipora_2009_003	21	F	start_even_right	1	12	9	left	430	1	1	1
cipora_2009_003	21	F	start_even_right	1	13	9	left	400	1	1	1
cipora_2009_003	21	F	start_even_right	1	14	2	right	598	1	1	1
cipora_2009_003	21	F	start_even_right	1	15	1	left	422	1	1	1
cipora_2009_003	21	F	start_even_right	1	16	4	right	661	1	1	1
cipora_2009_003	21	F	start_even_right	1	17	2	right	447	1	1	1
cipora_2009_003	21	F	start_even_right	1	18	7	left	419	1	1	1
cipora_2009_003	21	F	start_even_right	1	19	3	left	505	1	1	1
cipora_2009_003	21	F	start_even_right	1	20	4	right	430	1	1	1
cipora_2009_003	21	F	start_even_right	1	21	4	right	383	1	1	1
cipora_2009_003	21	F	start_even_right	1	22	9	left	433	1	1	1
cipora_2009_003	21	F	start_even_right	1	23	2	right	436	1	1	1
cipora_2009_003	21	F	start_even_right	1	24	8	right	466	1	1	1
cipora_2009_003	21	F	start_even_right	1	25	2	right	540	1	1	1
cipora_2009_003	21	F	start_even_right	1	26	6	right	414	1	1	1
cipora_2009_003	21	F	start_even_right	1	27	2	right	460	1	1	1
cipora_2009_003	21	F	start_even_right	1	28	2	right	477	1	1	1
cipora_2009_003	21	F	start_even_right	1	29	1	left	433	1	1	1
cipora_2009_003	21	F	start_even_right	1	30	6	right	449	1	1	1
cipora_2009_003	21	F	start_even_right	1	31	9	left	381	1	1	1
cipora_2009_003	21	F	start_even_right	1	32	8	right	394	1	1	1
cipora_2009_003	21	F	start_even_right	1	33	3	left	397	1	1	1
cipora_2009_003	21	F	start_even_right	1	34	1	left	403	1	1	1
cipora_2009_003	21	F	start_even_right	1	35	9	left	573	1	1	1
cipora_2009_003	21	F	start_even_right	1	36	7	left	416	1	1	1
cipora_2009_003	21	F	start_even_right	1	37	3	left	394	1	1	1
cipora_2009_003	21	F	start_even_right	1	38	9	left	653	1	1	1
cipora_2009_003	21	F	start_even_right	1	39	1	left	499	1	1	1
cipora_2009_003	21	F	start_even_right	1	40	7	left	439	1	1	1
cipora_2009_003	21	F	start_even_right	1	41	7	left	359	1	1	1
cipora_2009_003	21	F	start_even_right	1	42	8	right	389	1	1	1
cipora_2009_003	21	F	start_even_right	1	43	9	left	504	1	1	1
cipora_2009_003	21	F	start_even_right	1	44	7	left	482	1	1	1
cipora_2009_003	21	F	start_even_right	1	45	4	right	480	1	1	1
cipora_2009_003	21	F	start_even_right	1	46	7	left	444	1	1	1
cipora_2009_003	21	F	start_even_right	1	47	7	left	326	1	1	1
cipora_2009_003	21	F	start_even_right	1	48	1	left	350	1	1	1
cipora_2009_003	21	F	start_even_right	1	49	1	left	367	1	1	1
cipora_2009_003	21	F	start_even_right	1	50	2	right	443	1	1	1
cipora_2009_003	21	F	start_even_right	1	51	8	right	383	1	1	1
cipora_2009_003	21	F	start_even_right	1	52	3	left	375	1	1	1
cipora_2009_003	21	F	start_even_right	1	53	3	left	320	1	1	1
cipora_2009_003	21	F	start_even_right	1	54	4	right	543	1	1	1
cipora_2009_003	21	F	start_even_right	1	55	9	left	436	1	1	1
cipora_2009_003	21	F	start_even_right	1	56	8	right	466	1	1	1
cipora_2009_003	21	F	start_even_right	1	57	8	right	361	1	1	1
cipora_2009_003	21	F	start_even_right	1	58	4	right	377	0	0	0
cipora_2009_003	21	F	start_even_right	1	59	6	right	433	1	1	1
cipora_2009_003	21	F	start_even_right	1	60	3	left	479	1	1	1
cipora_2009_003	21	F	start_even_right	1	61	4	right	417	1	1	1
cipora_2009_003	21	F	start_even_right	1	62	7	left	504	1	1	1
cipora_2009_003	21	F	start_even_right	1	63	8	right	433	1	1	1
cipora_2009_003	21	F	start_even_right	1	64	9	left	479	1	1	1
cipora_2009_003	21	F	start_even_right	1	65	6	right	529	1	1	1
cipora_2009_003	21	F	start_even_right	1	66	3	left	474	1	1	1
cipora_2009_003	21	F	start_even_right	1	67	3	left	388	1	1	1
cipora_2009_003	21	F	start_even_right	1	68	8	right	443	1	1	1
cipora_2009_003	21	F	start_even_right	1	69	6	right	444	1	1	1
cipora_2009_003	21	F	start_even_right	1	70	6	right	378	1	1	1
cipora_2009_003	21	F	start_even_right	1	71	1	left	397	1	1	1
cipora_2009_003	21	F	start_even_right	1	72	6	right	461	1	1	1
cipora_2009_003	21	F	start_even_right	1	73	3	left	518	1	1	1
cipora_2009_003	21	F	start_even_right	1	74	4	right	612	1	1	1
cipora_2009_003	21	F	start_even_right	1	75	6	right	345	1	1	1
cipora_2009_003	21	F	start_even_right	1	76	1	left	397	1	1	1
cipora_2009_003	21	F	start_even_right	1	77	2	right	433	1	1	1
cipora_2009_003	21	F	start_even_right	1	78	2	right	394	1	1	1
cipora_2009_003	21	F	start_even_right	1	79	1	left	386	1	1	1
cipora_2009_003	21	F	start_even_right	1	80	2	right	449	1	1	1
cipora_2009_003	21	F	start_even_right	1	81	6	right	362	1	1	1
cipora_2009_003	21	F	start_even_right	1	82	7	left	424	1	1	1
cipora_2009_003	21	F	start_even_right	1	83	7	left	323	1	1	1
cipora_2009_003	21	F	start_even_right	1	84	4	right	380	0	0	0
cipora_2009_003	21	F	start_even_right	1	85	6	right	405	1	1	1
cipora_2009_003	21	F	start_even_right	1	86	3	left	664	1	1	1
cipora_2009_003	21	F	start_even_right	1	87	1	left	347	1	1	1
cipora_2009_003	21	F	start_even_right	1	88	6	right	455	1	1	1
cipora_2009_003	21	F	start_even_right	1	89	4	right	394	1	1	1
cipora_2009_003	21	F	start_even_right	1	90	7	left	457	1	1	1
cipora_2009_003	21	F	start_even_right	1	91	1	left	389	1	1	1
cipora_2009_003	21	F	start_even_right	1	92	3	left	531	1	1	1
cipora_2009_003	21	F	start_even_right	1	93	2	right	433	1	1	1
cipora_2009_003	21	F	start_even_right	1	94	4	right	579	1	1	1
cipora_2009_003	21	F	start_even_right	1	95	6	right	494	1	1	1
cipora_2009_003	21	F	start_even_right	1	96	2	right	488	1	1	1
cipora_2009_003	21	F	start_even_right	2	97	7	right	491	1	1	1
cipora_2009_003	21	F	start_even_right	2	98	4	left	507	1	1	1
cipora_2009_003	21	F	start_even_right	2	99	1	right	546	1	1	1
cipora_2009_003	21	F	start_even_right	2	100	9	right	490	1	1	1
cipora_2009_003	21	F	start_even_right	2	101	9	right	422	1	1	1
cipora_2009_003	21	F	start_even_right	2	102	4	left	417	1	1	1
cipora_2009_003	21	F	start_even_right	2	103	3	right	480	1	1	1
cipora_2009_003	21	F	start_even_right	2	104	2	left	414	1	1	1
cipora_2009_003	21	F	start_even_right	2	105	1	right	436	1	1	1
cipora_2009_003	21	F	start_even_right	2	106	7	right	571	1	1	1
cipora_2009_003	21	F	start_even_right	2	107	6	left	600	1	1	1
cipora_2009_003	21	F	start_even_right	2	108	9	right	438	1	1	1
cipora_2009_003	21	F	start_even_right	2	109	8	left	485	1	1	1
cipora_2009_003	21	F	start_even_right	2	110	2	left	496	1	1	1
cipora_2009_003	21	F	start_even_right	2	111	3	right	617	1	1	1
cipora_2009_003	21	F	start_even_right	2	112	8	left	543	1	1	1
cipora_2009_003	21	F	start_even_right	2	113	2	left	373	1	1	1
cipora_2009_003	21	F	start_even_right	2	114	2	left	370	1	1	1
cipora_2009_003	21	F	start_even_right	2	115	8	left	505	1	1	1
cipora_2009_003	21	F	start_even_right	2	116	7	right	469	1	1	1
cipora_2009_003	21	F	start_even_right	2	117	2	left	460	1	1	1
cipora_2009_003	21	F	start_even_right	2	118	6	left	378	1	1	1
cipora_2009_003	21	F	start_even_right	2	119	3	right	438	1	1	1
cipora_2009_003	21	F	start_even_right	2	120	4	left	474	1	1	1
cipora_2009_003	21	F	start_even_right	2	121	8	left	413	1	1	1
cipora_2009_003	21	F	start_even_right	2	122	9	right	647	1	1	1
cipora_2009_003	21	F	start_even_right	2	123	8	left	485	0	0	0
cipora_2009_003	21	F	start_even_right	2	124	2	left	488	1	1	1
cipora_2009_003	21	F	start_even_right	2	125	1	right	521	1	1	1
cipora_2009_003	21	F	start_even_right	2	126	9	right	730	1	1	0
cipora_2009_003	21	F	start_even_right	2	127	8	left	659	1	1	1
cipora_2009_003	21	F	start_even_right	2	128	8	left	395	1	1	1
cipora_2009_003	21	F	start_even_right	2	129	3	right	490	1	1	1
cipora_2009_003	21	F	start_even_right	2	130	6	left	491	1	1	1
cipora_2009_003	21	F	start_even_right	2	131	6	left	365	1	1	1
cipora_2009_003	21	F	start_even_right	2	132	9	right	499	1	1	1
cipora_2009_003	21	F	start_even_right	2	133	9	right	419	1	1	1
cipora_2009_003	21	F	start_even_right	2	134	6	left	474	1	1	1
cipora_2009_003	21	F	start_even_right	2	135	3	right	460	1	1	1
cipora_2009_003	21	F	start_even_right	2	136	1	right	421	1	1	1
cipora_2009_003	21	F	start_even_right	2	137	4	left	482	1	1	1
cipora_2009_003	21	F	start_even_right	2	138	6	left	433	1	1	1
cipora_2009_003	21	F	start_even_right	2	139	1	right	441	1	1	1
cipora_2009_003	21	F	start_even_right	2	140	1	right	365	1	1	1
cipora_2009_003	21	F	start_even_right	2	141	1	right	408	1	1	1
cipora_2009_003	21	F	start_even_right	2	142	2	left	471	1	1	1
cipora_2009_003	21	F	start_even_right	2	143	2	left	378	1	1	1
cipora_2009_003	21	F	start_even_right	2	144	3	right	477	1	1	1
cipora_2009_003	21	F	start_even_right	2	145	1	right	410	1	1	1
cipora_2009_003	21	F	start_even_right	2	146	4	left	466	1	1	1
cipora_2009_003	21	F	start_even_right	2	147	8	left	378	1	1	1
cipora_2009_003	21	F	start_even_right	2	148	8	left	353	1	1	1
cipora_2009_003	21	F	start_even_right	2	149	4	left	356	1	1	1
cipora_2009_003	21	F	start_even_right	2	150	7	right	488	1	1	1
cipora_2009_003	21	F	start_even_right	2	151	9	right	507	1	1	1
cipora_2009_003	21	F	start_even_right	2	152	6	left	650	1	1	1
cipora_2009_003	21	F	start_even_right	2	153	7	right	531	1	1	1
cipora_2009_003	21	F	start_even_right	2	154	7	right	411	1	1	1
cipora_2009_003	21	F	start_even_right	2	155	2	left	493	1	1	1
cipora_2009_003	21	F	start_even_right	2	156	3	right	460	1	1	1
cipora_2009_003	21	F	start_even_right	2	157	9	right	479	1	1	1
cipora_2009_003	21	F	start_even_right	2	158	1	right	394	1	1	1
cipora_2009_003	21	F	start_even_right	2	159	7	right	501	1	1	1
cipora_2009_003	21	F	start_even_right	2	160	8	left	521	1	1	1
cipora_2009_003	21	F	start_even_right	2	161	6	left	425	1	1	1
cipora_2009_003	21	F	start_even_right	2	162	8	left	479	1	1	1
cipora_2009_003	21	F	start_even_right	2	163	6	left	411	1	1	1
cipora_2009_003	21	F	start_even_right	2	164	1	right	501	1	1	1
cipora_2009_003	21	F	start_even_right	2	165	6	left	619	1	1	1
cipora_2009_003	21	F	start_even_right	2	166	2	left	428	1	1	1
cipora_2009_003	21	F	start_even_right	2	167	4	left	697	1	1	0
cipora_2009_003	21	F	start_even_right	2	168	9	right	381	0	0	0
cipora_2009_003	21	F	start_even_right	2	169	4	left	465	1	1	1
cipora_2009_003	21	F	start_even_right	2	170	7	right	449	1	1	1
cipora_2009_003	21	F	start_even_right	2	171	8	left	482	1	1	1
cipora_2009_003	21	F	start_even_right	2	172	2	left	551	1	1	1
cipora_2009_003	21	F	start_even_right	2	173	3	right	513	1	1	1
cipora_2009_003	21	F	start_even_right	2	174	6	left	619	1	1	1
cipora_2009_003	21	F	start_even_right	2	175	3	right	391	1	1	1
cipora_2009_003	21	F	start_even_right	2	176	9	right	493	1	1	1
cipora_2009_003	21	F	start_even_right	2	177	3	right	507	1	1	1
cipora_2009_003	21	F	start_even_right	2	178	1	right	512	1	1	1
cipora_2009_003	21	F	start_even_right	2	179	7	right	411	1	1	1
cipora_2009_003	21	F	start_even_right	2	180	4	left	443	1	1	1
cipora_2009_003	21	F	start_even_right	2	181	3	right	455	1	1	1
cipora_2009_003	21	F	start_even_right	2	182	9	right	647	1	1	1
cipora_2009_003	21	F	start_even_right	2	183	4	left	485	1	1	1
cipora_2009_003	21	F	start_even_right	2	184	7	right	422	1	1	1
cipora_2009_003	21	F	start_even_right	2	185	1	right	422	1	1	1
cipora_2009_003	21	F	start_even_right	2	186	4	left	417	1	1	1
cipora_2009_003	21	F	start_even_right	2	187	7	right	479	1	1	1
cipora_2009_003	21	F	start_even_right	2	188	4	left	452	1	1	1
cipora_2009_003	21	F	start_even_right	2	189	7	right	439	1	1	1
cipora_2009_003	21	F	start_even_right	2	190	6	left	455	1	1	1
cipora_2009_003	21	F	start_even_right	2	191	3	right	466	1	1	1
cipora_2009_003	21	F	start_even_right	2	192	2	left	518	1	1	1
cipora_2009_004	24	F	start_even_right	1	1	8	right	463	1	1	1
cipora_2009_004	24	F	start_even_right	1	2	8	right	355	1	1	1
cipora_2009_004	24	F	start_even_right	1	3	6	right	578	1	1	1
cipora_2009_004	24	F	start_even_right	1	4	7	left	380	0	0	0
cipora_2009_004	24	F	start_even_right	1	5	3	left	1241	1	1	0
cipora_2009_004	24	F	start_even_right	1	6	4	right	564	1	1	1
cipora_2009_004	24	F	start_even_right	1	7	1	left	512	1	1	1
cipora_2009_004	24	F	start_even_right	1	8	6	right	424	1	1	1
cipora_2009_004	24	F	start_even_right	1	9	8	right	388	1	1	1
cipora_2009_004	24	F	start_even_right	1	10	2	right	765	1	1	1
cipora_2009_004	24	F	start_even_right	1	11	6	right	380	1	1	1
cipora_2009_004	24	F	start_even_right	1	12	8	right	873	1	1	1
cipora_2009_004	24	F	start_even_right	1	13	9	left	746	1	1	1
cipora_2009_004	24	F	start_even_right	1	14	7	left	1475	1	1	0
cipora_2009_004	24	F	start_even_right	1	15	7	left	441	1	1	1
cipora_2009_004	24	F	start_even_right	1	16	6	right	553	1	1	1
cipora_2009_004	24	F	start_even_right	1	17	7	left	855	1	1	1
cipora_2009_004	24	F	start_even_right	1	18	6	right	600	1	1	1
cipora_2009_004	24	F	start_even_right	1	19	1	left	581	1	1	1
cipora_2009_004	24	F	start_even_right	1	20	6	right	787	1	1	1
cipora_2009_004	24	F	start_even_right	1	21	3	left	702	1	1	1
cipora_2009_004	24	F	start_even_right	1	22	1	left	570	1	1	1
cipora_2009_004	24	F	start_even_right	1	23	1	left	406	1	1	1
cipora_2009_004	24	F	start_even_right	1	24	8	right	427	1	1	1
cipora_2009_004	24	F	start_even_right	1	25	3	left	487	1	1	1
cipora_2009_004	24	F	start_even_right	1	26	8	right	504	1	1	1
cipora_2009_004	24	F	start_even_right	1	27	4	right	537	1	1	1
cipora_2009_004	24	F	start_even_right	1	28	8	right	391	1	1	1
cipora_2009_004	24	F	start_even_right	1	29	9	left	501	1	1	1
cipora_2009_004	24	F	start_even_right	1	30	3	left	537	1	1	1
cipora_2009_004	24	F	start_even_right	1	31	2	right	480	1	1	1
cipora_2009_004	24	F	start_even_right	1	32	1	left	345	1	1	1
cipora_2009_004	24	F	start_even_right	1	33	2	right	392	1	1	1
cipora_2009_004	24	F	start_even_right	1	34	1	left	518	1	1	1
cipora_2009_004	24	F	start_even_right	1	35	4	right	460	1	1	1
cipora_2009_004	24	F	start_even_right	1	36	3	left	641	1	1	1
cipora_2009_004	24	F	start_even_right	1	37	2	right	545	1	1	1
cipora_2009_004	24	F	start_even_right	1	38	7	left	501	1	1	1
cipora_2009_004	24	F	start_even_right	1	39	2	right	482	1	1	1
cipora_2009_004	24	F	start_even_right	1	40	6	right	421	1	1	1
cipora_2009_004	24	F	start_even_right	1	41	1	left	418	1	1	1
cipora_2009_004	24	F	start_even_right	1	42	9	left	727	1	1	1
cipora_2009_004	24	F	start_even_right	1	43	1	left	369	1	1	1
cipora_2009_004	24	F	start_even_right	1	44	4	right	518	1	1	1
cipora_2009_004	24	F	start_even_right	1	45	3	left	561	1	1	1
cipora_2009_004	24	F	start_even_right	1	46	9	left	840	1	1	1
cipora_2009_004	24	F	start_even_right	1	47	4	right	510	1	1	1
cipora_2009_004	24	F	start_even_right	1	48	9	left	559	1	1	1
cipora_2009_004	24	F	start_even_right	1	49	8	right	518	1	1	1
cipora_2009_004	24	F	start_even_right	1	50	1	left	490	1	1	1
cipora_2009_004	24	F	start_even_right	1	51	3	left	496	1	1	1
cipora_2009_004	24	F	start_even_right	1	52	3	left	424	1	1	1
cipora_2009_004	24	F	start_even_right	1	53	4	right	485	1	1	1
cipora_2009_004	24	F	start_even_right	1	54	7	left	523	1	1	1
cipora_2009_004	24	F	start_even_right	1	55	4	right	1147	1	1	0
cipora_2009_004	24	F	start_even_right	1	56	7	left	743	1	1	1
cipora_2009_004	24	F	start_even_right	1	57	2	right	546	1	1	1
cipora_2009_004	24	F	start_even_right	1	58	7	left	614	1	1	1
cipora_2009_004	24	F	start_even_right	1	59	9	left	535	1	1	1
cipora_2009_004	24	F	start_even_right	1	60	3	left	553	1	1	1
cipora_2009_004	24	F	start_even_right	1	61	2	right	485	1	1	1
cipora_2009_004	24	F	start_even_right	1	62	6	right	550	1	1	1
cipora_2009_004	24	F	start_even_right	1	63	9	left	446	1	1	1
cipora_2009_004	24	F	start_even_right	1	64	6	right	680	1	1	1
cipora_2009_004	24	F	start_even_right	1	65	9	left	495	1	1	1
cipora_2009_004	24	F	start_even_right	1	66	6	right	537	1	1	1
cipora_2009_004	24	F	start_even_right	1	67	7	left	672	1	1	1
cipora_2009_004	24	F	start_even_right	1	68	3	left	672	1	1	1
cipora_2009_004	24	F	start_even_right	1	69	7	left	444	1	1	1
cipora_2009_004	24	F	start_even_right	1	70	9	left	931	1	1	0
cipora_2009_004	24	F	start_even_right	1	71	8	right	858	1	1	1
cipora_2009_004	24	F	start_even_right	1	72	4	right	738	1	1	1
cipora_2009_004	24	F	start_even_right	1	73	8	right	372	1	1	1
cipora_2009_004	24	F	start_even_right	1	74	3	left	471	1	1	1
cipora_2009_004	24	F	start_even_right	1	75	4	right	636	1	1	1
cipora_2009_004	24	F	start_even_right	1	76	8	right	570	1	1	1
cipora_2009_004	24	F	start_even_right	1	77	4	right	435	1	1	1
cipora_2009_004	24	F	start_even_right	1	78	7	left	501	1	1	1
cipora_2009_004	24	F	start_even_right	1	79	1	left	468	1	1	1
cipora_2009_004	24	F	start_even_right	1	80	8	right	510	1	1	1
cipora_2009_004	24	F	start_even_right	1	81	1	left	451	1	1	1
cipora_2009_004	24	F	start_even_right	1	82	4	right	408	1	1	1
cipora_2009_004	24	F	start_even_right	1	83	2	right	998	1	1	0
cipora_2009_004	24	F	start_even_right	1	84	2	right	1043	1	1	0
cipora_2009_004	24	F	start_even_right	1	85	4	right	441	1	1	1
cipora_2009_004	24	F	start_even_right	1	86	9	left	718	1	1	1
cipora_2009_004	24	F	start_even_right	1	87	9	left	342	1	1	1
cipora_2009_004	24	F	start_even_right	1	88	9	left	446	1	1	1
cipora_2009_004	24	F	start_even_right	1	89	7	left	578	1	1	1
cipora_2009_004	24	F	start_even_right	1	90	6	right	477	1	1	1
cipora_2009_004	24	F	start_even_right	1	91	3	left	408	1	1	1
cipora_2009_004	24	F	start_even_right	1	92	2	right	419	1	1	1
cipora_2009_004	24	F	start_even_right	1	93	1	left	438	1	1	1
cipora_2009_004	24	F	start_even_right	1	94	2	right	416	0	0	0
cipora_2009_004	24	F	start_even_right	1	95	6	right	523	1	1	1
cipora_2009_004	24	F	start_even_right	1	96	2	right	493	1	1	1
cipora_2009_004	24	F	start_even_right	2	97	2	left	620	1	1	1
cipora_2009_004	24	F	start_even_right	2	98	9	right	802	1	1	1
cipora_2009_004	24	F	start_even_right	2	99	3	right	546	1	1	1
cipora_2009_004	24	F	start_even_right	2	100	8	left	528	1	1	1
cipora_2009_004	24	F	start_even_right	2	101	3	right	538	1	1	1
cipora_2009_004	24	F	start_even_right	2	102	8	left	0	0	0	0
cipora_2009_004	24	F	start_even_right	2	103	7	right	618	1	1	1
cipora_2009_004	24	F	start_even_right	2	104	7	right	427	1	1	1
cipora_2009_004	24	F	start_even_right	2	105	1	right	586	1	1	1
cipora_2009_004	24	F	start_even_right	2	106	6	left	350	1	1	1
cipora_2009_004	24	F	start_even_right	2	107	1	right	493	1	1	1
cipora_2009_004	24	F	start_even_right	2	108	6	left	704	1	1	1
cipora_2009_004	24	F	start_even_right	2	109	4	left	394	1	1	1
cipora_2009_004	24	F	start_even_right	2	110	2	left	405	1	1	1
cipora_2009_004	24	F	start_even_right	2	111	6	left	438	1	1	1
cipora_2009_004	24	F	start_even_right	2	112	2	left	413	0	0	0
cipora_2009_004	24	F	start_even_right	2	113	8	left	674	1	1	1
cipora_2009_004	24	F	start_even_right	2	114	2	left	430	1	1	1
cipora_2009_004	24	F	start_even_right	2	115	4	left	399	1	1	1
cipora_2009_004	24	F	start_even_right	2	116	4	left	397	1	1	1
cipora_2009_004	24	F	start_even_right	2	117	7	right	606	1	1	1
cipora_2009_004	24	F	start_even_right	2	118	7	right	394	1	1	1
cipora_2009_004	24	F	start_even_right	2	119	4	left	545	1	1	1
cipora_2009_004	24	F	start_even_right	2	120	8	left	438	1	1	1
cipora_2009_004	24	F	start_even_right	2	121	4	left	611	1	1	1
cipora_2009_004	24	F	start_even_right	2	122	7	right	507	1	1	1
cipora_2009_004	24	F	start_even_right	2	123	1	right	658	1	1	1
cipora_2009_004	24	F	start_even_right	2	124	2	left	458	1	1	1
cipora_2009_004	24	F	start_even_right	2	125	7	right	666	1	1	1
cipora_2009_004	24	F	start_even_right	2	126	1	right	1084	1	1	0
cipora_2009_004	24	F	start_even_right	2	127	7	right	501	1	1	1
cipora_2009_004	24	F	start_even_right	2	128	3	right	531	1	1	1
cipora_2009_004	24	F	start_even_right	2	129	9	right	498	1	1	1
cipora_2009_004	24	F	start_even_right	2	130	8	left	421	1	1	1
cipora_2009_004	24	F	start_even_right	2	131	9	right	647	1	1	1
cipora_2009_004	24	F	start_even_right	2	132	8	left	608	1	1	1
cipora_2009_004	24	F	start_even_right	2	133	7	right	471	1	1	1
cipora_2009_004	24	F	start_even_right	2	134	6	left	592	1	1	1
cipora_2009_004	24	F	start_even_right	2	135	6	left	397	1	1	1
cipora_2009_004	24	F	start_even_right	2	136	2	left	433	1	1	1
cipora_2009_004	24	F	start_even_right	2	137	8	left	455	1	1	1
cipora_2009_004	24	F	start_even_right	2	138	9	right	427	1	1	1
cipora_2009_004	24	F	start_even_right	2	139	9	right	655	1	1	1
cipora_2009_004	24	F	start_even_right	2	140	2	left	523	1	1	1
cipora_2009_004	24	F	start_even_right	2	141	9	right	565	1	1	1
cipora_2009_004	24	F	start_even_right	2	142	1	right	856	1	1	1
cipora_2009_004	24	F	start_even_right	2	143	7	right	631	1	1	1
cipora_2009_004	24	F	start_even_right	2	144	4	left	1068	1	1	0
cipora_2009_004	24	F	start_even_right	2	145	3	right	573	1	1	1
cipora_2009_004	24	F	start_even_right	2	146	3	right	377	1	1	1
cipora_2009_004	24	F	start_even_right	2	147	2	left	438	1	1	1
cipora_2009_004	24	F	start_even_right	2	148	6	left	460	1	1	1
cipora_2009_004	24	F	start_even_right	2	149	1	right	548	1	1	1
cipora_2009_004	24	F	start_even_right	2	150	7	right	583	1	1	1
cipora_2009_004	24	F	start_even_right	2	151	8	left	565	1	1	1
cipora_2009_004	24	F	start_even_right	2	152	8	left	431	1	1	1
cipora_2009_004	24	F	start_even_right	2	153	4	left	444	1	1	1
cipora_2009_004	24	F	start_even_right	2	154	4	left	415	1	1	1
cipora_2009_004	24	F	start_even_right	2	155	9	right	482	1	1	1
cipora_2009_004	24	F	start_even_right	2	156	7	right	386	1	1	1
cipora_2009_004	24	F	start_even_right	2	157	1	right	333	1	1	1
cipora_2009_004	24	F	start_even_right	2	158	6	left	405	1	1	1
cipora_2009_004	24	F	start_even_right	2	159	7	right	446	1	1	1
cipora_2009_004	24	F	start_even_right	2	160	3	right	458	1	1	1
cipora_2009_004	24	F	start_even_right	2	161	3	right	448	1	1	1
cipora_2009_004	24	F	start_even_right	2	162	3	right	350	1	1	1
cipora_2009_004	24	F	start_even_right	2	163	6	left	498	1	1	1
cipora_2009_004	24	F	start_even_right	2	164	3	right	512	1	1	1
cipora_2009_004	24	F	start_even_right	2	165	4	left	515	1	1	1
cipora_2009_004	24	F	start_even_right	2	166	1	right	540	1	1	1
cipora_2009_004	24	F	start_even_right	2	167	9	right	639	1	1	1
cipora_2009_004	24	F	start_even_right	2	168	2	left	556	1	1	1
cipora_2009_004	24	F	start_even_right	2	169	6	left	675	1	1	1
cipora_2009_004	24	F	start_even_right	2	170	6	left	612	1	1	1
cipora_2009_004	24	F	start_even_right	2	171	3	right	561	1	1	1
cipora_2009_004	24	F	start_even_right	2	172	1	right	628	1	1	1
cipora_2009_004	24	F	start_even_right	2	173	9	right	471	0	0	0
cipora_2009_004	24	F	start_even_right	2	174	2	left	716	1	1	1
cipora_2009_004	24	F	start_even_right	2	175	8	left	553	1	1	1
cipora_2009_004	24	F	start_even_right	2	176	6	left	650	1	1	1
cipora_2009_004	24	F	start_even_right	2	177	3	right	674	1	1	1
cipora_2009_004	24	F	start_even_right	2	178	6	left	583	1	1	1
cipora_2009_004	24	F	start_even_right	2	179	9	right	639	1	1	1
cipora_2009_004	24	F	start_even_right	2	180	2	left	567	1	1	1
cipora_2009_004	24	F	start_even_right	2	181	3	right	554	1	1	1
cipora_2009_004	24	F	start_even_right	2	182	9	right	624	1	1	1
cipora_2009_004	24	F	start_even_right	2	183	1	right	391	1	1	1
cipora_2009_004	24	F	start_even_right	2	184	8	left	452	1	1	1
cipora_2009_004	24	F	start_even_right	2	185	2	left	542	1	1	1
cipora_2009_004	24	F	start_even_right	2	186	4	left	436	1	1	1
cipora_2009_004	24	F	start_even_right	2	187	1	right	595	1	1	1
cipora_2009_004	24	F	start_even_right	2	188	8	left	416	1	1	1
cipora_2009_004	24	F	start_even_right	2	189	9	right	579	1	1	1
cipora_2009_004	24	F	start_even_right	2	190	4	left	600	1	1	1
cipora_2009_004	24	F	start_even_right	2	191	4	left	366	1	1	1
cipora_2009_004	24	F	start_even_right	2	192	1	right	358	1	1	1
cipora_2009_005	26	M	start_even_right	1	1	1	left	515	1	1	1
cipora_2009_005	26	M	start_even_right	1	2	6	right	421	1	1	1
cipora_2009_005	26	M	start_even_right	1	3	2	right	372	0	0	0
cipora_2009_005	26	M	start_even_right	1	4	6	right	518	1	1	1
cipora_2009_005	26	M	start_even_right	1	5	3	left	488	1	1	1
cipora_2009_005	26	M	start_even_right	1	6	7	left	492	1	1	1
cipora_2009_005	26	M	start_even_right	1	7	3	left	408	1	1	1
cipora_2009_005	26	M	start_even_right	1	8	6	right	450	1	1	1
cipora_2009_005	26	M	start_even_right	1	9	8	right	524	1	1	1
cipora_2009_005	26	M	start_even_right	1	10	8	right	391	1	1	1
cipora_2009_005	26	M	start_even_right	1	11	3	left	383	1	1	1
cipora_2009_005	26	M	start_even_right	1	12	4	right	407	1	1	1
cipora_2009_005	26	M	start_even_right	1	13	2	right	437	0	0	0
cipora_2009_005	26	M	start_even_right	1	14	7	left	502	1	1	1
cipora_2009_005	26	M	start_even_right	1	15	7	left	487	1	1	1
cipora_2009_005	26	M	start_even_right	1	16	9	left	477	0	0	0
cipora_2009_005	26	M	start_even_right	1	17	2	right	543	1	1	1
cipora_2009_005	26	M	start_even_right	1	18	7	left	526	1	1	1
cipora_2009_005	26	M	start_even_right	1	19	9	left	713	1	1	1
cipora_2009_005	26	M	start_even_right	1	20	1	left	415	1	1	1
cipora_2009_005	26	M	start_even_right	1	21	1	left	505	1	1	1
cipora_2009_005	26	M	start_even_right	1	22	9	left	393	0	0	0
cipora_2009_005	26	M	start_even_right	1	23	2	right	510	1	1	1
cipora_2009_005	26	M	start_even_right	1	24	4	right	472	1	1	1
cipora_2009_005	26	M	start_even_right	1	25	1	left	418	1	1	1
cipora_2009_005	26	M	start_even_right	1	26	6	right	413	1	1	1
cipora_2009_005	26	M	start_even_right	1	27	8	right	658	1	1	1
cipora_2009_005	26	M	start_even_right	1	28	6	right	451	0	0	0
cipora_2009_005	26	M	start_even_right	1	29	6	right	363	1	1	1
cipora_2009_005	26	M	start_even_right	1	30	8	right	504	1	1	1
cipora_2009_005	26	M	start_even_right	1	31	1	left	399	1	1	1
cipora_2009_005	26	M	start_even_right	1	32	4	right	467	1	1	1
cipora_2009_005	26	M	start_even_right	1	33	9	left	510	1	1	1
cipora_2009_005	26	M	start_even_right	1	34	1	left	612	1	1	1
cipora_2009_005	26	M	start_even_right	1	35	6	right	418	1	1	1
cipora_2009_005	26	M	start_even_right	1	36	3	left	494	1	1	1
cipora_2009_005	26	M	start_even_right	1	37	6	right	439	1	1	1
cipora_2009_005	26	M	start_even_right	1	38	4	right	416	1	1	1
cipora_2009_005	26	M	start_even_right	1	39	9	left	348	0	0	0
cipora_2009_005	26	M	start_even_right	1	40	7	left	480	1	1	1
cipora_2009_005	26	M	start_even_right	1	41	9	left	508	1	1	1
cipora_2009_005	26	M	start_even_right	1	42	9	left	380	1	1	1
cipora_2009_005	26	M	start_even_right	1	43	8	right	380	1	1	1
cipora_2009_005	26	M	start_even_right	1	44	8	right	361	1	1	1
cipora_2009_005	26	M	start_even_right	1	45	3	left	428	1	1	1
cipora_2009_005	26	M	start_even_right	1	46	7	left	640	1	1	1
cipora_2009_005	26	M	start_even_right	1	47	7	left	342	1	1	1
cipora_2009_005	26	M	start_even_right	1	48	2	right	510	1	1	1
cipora_2009_005	26	M	start_even_right	1	49	4	right	472	1	1	1
cipora_2009_005	26	M	start_even_right	1	50	1	left	393	1	1	1
cipora_2009_005	26	M	start_even_right	1	51	1	left	415	1	1	1
cipora_2009_005	26	M	start_even_right	1	52	2	right	434	1	1	1
cipora_2009_005	26	M	start_even_right	1	53	2	right	348	1	1	1
cipora_2009_005	26	M	start_even_right	1	54	4	right	583	0	0	0
cipora_2009_005	26	M	start_even_right	1	55	7	left	659	1	1	1
cipora_2009_005	26	M	start_even_right	1	56	7	left	448	0	0	0
cipora_2009_005	26	M	start_even_right	1	57	1	left	599	1	1	1
cipora_2009_005	26	M	start_even_right	1	58	9	left	715	1	1	1
cipora_2009_005	26	M	start_even_right	1	59	1	left	421	1	1	1
cipora_2009_005	26	M	start_even_right	1	60	3	left	545	1	1	1
cipora_2009_005	26	M	start_even_right	1	61	7	left	502	1	1	1
cipora_2009_005	26	M	start_even_right	1	62	4	right	508	1	1	1
cipora_2009_005	26	M	start_even_right	1	63	6	right	486	1	1	1
cipora_2009_005	26	M	start_even_right	1	64	8	right	881	1	1	0
cipora_2009_005	26	M	start_even_right	1	65	4	right	537	1	1	1
cipora_2009_005	26	M	start_even_right	1	66	4	right	393	1	1	1
cipora_2009_005	26	M	start_even_right	1	67	4	right	386	1	1	1
cipora_2009_005	26	M	start_even_right	1	68	3	left	542	1	1	1
cipora_2009_005	26	M	start_even_right	1	69	3	left	402	0	0	0
cipora_2009_005	26	M	start_even_right	1	70	4	right	472	1	1	1
cipora_2009_005	26	M	start_even_right	1	71	1	left	540	1	1	1
cipora_2009_005	26	M	start_even_right	1	72	2	right	505	1	1	1
cipora_2009_005	26	M	start_even_right	1	73	8	right	371	1	1	1
cipora_2009_005	26	M	start_even_right	1	74	2	right	372	1	1	1
cipora_2009_005	26	M	start_even_right	1	75	9	left	461	1	1	1
cipora_2009_005	26	M	start_even_right	1	76	8	right	540	1	1	1
cipora_2009_005	26	M	start_even_right	1	77	1	left	431	1	1	1
cipora_2009_005	26	M	start_even_right	1	78	7	left	437	1	1	1
cipora_2009_005	26	M	start_even_right	1	79	9	left	561	1	1	1
cipora_2009_005	26	M	start_even_right	1	80	3	left	391	1	1	1
cipora_2009_005	26	M	start_even_right	1	81	8	right	410	1	1	1
cipora_2009_005	26	M	start_even_right	1	82	8	right	396	1	1	1
cipora_2009_005	26	M	start_even_right	1	83	3	left	453	1	1	1
cipora_2009_005	26	M	start_even_right	1	84	7	left	551	1	1	1
cipora_2009_005	26	M	start_even_right	1	85	6	right	474	1	1	1
cipora_2009_005	26	M	start_even_right	1	86	9	left	486	1	1	1
cipora_2009_005	26	M	start_even_right	1	87	9	left	550	1	1	1
cipora_2009_005	26	M	start_even_right	1	88	2	right	458	1	1	1
cipora_2009_005	26	M	start_even_right	1	89	6	right	399	1	1	1
cipora_2009_005	26	M	start_even_right	1	90	8	right	413	1	1	1
cipora_2009_005	26	M	start_even_right	1	91	4	right	469	0	0	0
cipora_2009_005	26	M	start_even_right	1	92	2	right	510	1	1	1
cipora_2009_005	26	M	start_even_right	1	93	3	left	454	1	1	1
cipora_2009_005	26	M	start_even_right	1	94	6	right	408	1	1	1
cipora_2009_005	26	M	start_even_right	1	95	2	right	475	1	1	1
cipora_2009_005	26	M	start_even_right	1	96	3	left	508	1	1	1
cipora_2009_005	26	M	start_even_right	2	97	2	left	610	1	1	1
cipora_2009_005	26	M	start_even_right	2	98	3	right	486	1	1	1
cipora_2009_005	26	M	start_even_right	2	99	7	right	540	1	1	1
cipora_2009_005	26	M	start_even_right	2	100	3	right	512	1	1	1
cipora_2009_005	26	M	start_even_right	2	101	3	right	421	1	1	1
cipora_2009_005	26	M	start_even_right	2	102	3	right	374	1	1	1
cipora_2009_005	26	M	start_even_right	2	103	9	right	440	1	1	1
cipora_2009_005	26	M	start_even_right	2	104	7	right	334	1	1	1
cipora_2009_005	26	M	start_even_right	2	105	6	left	466	1	1	1
cipora_2009_005	26	M	start_even_right	2	106	8	left	445	0	0	0
cipora_2009_005	26	M	start_even_right	2	107	2	left	426	0	0	0
cipora_2009_005	26	M	start_even_right	2	108	6	left	574	1	1	1
cipora_2009_005	26	M	start_even_right	2	109	6	left	359	1	1	1
cipora_2009_005	26	M	start_even_right	2	110	7	right	380	1	1	1
cipora_2009_005	26	M	start_even_right	2	111	4	left	515	1	1	1
cipora_2009_005	26	M	start_even_right	2	112	4	left	413	1	1	1
cipora_2009_005	26	M	start_even_right	2	113	3	right	469	1	1	1
cipora_2009_005	26	M	start_even_right	2	114	1	right	605	1	1	1
cipora_2009_005	26	M	start_even_right	2	115	4	left	434	1	1	1
cipora_2009_005	26	M	start_even_right	2	116	2	left	358	1	1	1
cipora_2009_005	26	M	start_even_right	2	117	6	left	599	1	1	1
cipora_2009_005	26	M	start_even_right	2	118	1	right	484	1	1	1
cipora_2009_005	26	M	start_even_right	2	119	7	right	521	1	1	1
cipora_2009_005	26	M	start_even_right	2	120	2	left	429	1	1	1
cipora_2009_005	26	M	start_even_right	2	121	3	right	578	1	1	1
cipora_2009_005	26	M	start_even_right	2	122	7	right	439	1	1	1
cipora_2009_005	26	M	start_even_right	2	123	7	right	372	1	1	1
cipora_2009_005	26	M	start_even_right	2	124	6	left	394	1	1	1
cipora_2009_005	26	M	start_even_right	2	125	7	right	409	1	1	1
cipora_2009_005	26	M	start_even_right	2	126	2	left	467	1	1	1
cipora_2009_005	26	M	start_even_right	2	127	8	left	415	0	0	0
cipora_2009_005	26	M	start_even_right	2	128	1	right	570	1	1	1
cipora_2009_005	26	M	start_even_right	2	129	7	right	550	1	1	1
cipora_2009_005	26	M	start_even_right	2	130	2	left	450	1	1	1
cipora_2009_005	26	M	start_even_right	2	131	4	left	475	1	1	1
cipora_2009_005	26	M	start_even_right	2	132	8	left	459	1	1	1
cipora_2009_005	26	M	start_even_right	2	133	6	left	494	1	1	1
cipora_2009_005	26	M	start_even_right	2	134	1	right	672	1	1	1
cipora_2009_005	26	M	start_even_right	2	135	9	right	689	1	1	1
cipora_2009_005	26	M	start_even_right	2	136	6	left	475	1	1	1
cipora_2009_005	26	M	start_even_right	2	137	3	right	615	1	1	1
cipora_2009_005	26	M	start_even_right	2	138	6	left	591	1	1	1
cipora_2009_005	26	M	start_even_right	2	139	8	left	532	1	1	1
cipora_2009_005	26	M	start_even_right	2	140	6	left	372	1	1	1
cipora_2009_005	26	M	start_even_right	2	141	8	left	508	1	1	1
cipora_2009_005	26	M	start_even_right	2	142	9	right	372	1	1	1
cipora_2009_005	26	M	start_even_right	2	143	8	left	578	1	1	1
cipora_2009_005	26	M	start_even_right	2	144	4	left	440	1	1	1
cipora_2009_005	26	M	start_even_right	2	145	8	left	488	1	1	1
cipora_2009_005	26	M	start_even_right	2	146	2	left	381	1	1	1
cipora_2009_005	26	M	start_even_right	2	147	9	right	470	1	1	1
cipora_2009_005	26	M	start_even_right	2	148	6	left	421	1	1	1
cipora_2009_005	26	M	start_even_right	2	149	3	right	475	0	0	0
cipora_2009_005	26	M	start_even_right	2	150	8	left	485	1	1	1
cipora_2009_005	26	M	start_even_right	2	151	4	left	445	1	1	1
cipora_2009_005	26	M	start_even_right	2	152	6	left	391	1	1	1
cipora_2009_005	26	M	start_even_right	2	153	9	right	539	1	1	1
cipora_2009_005	26	M	start_even_right	2	154	2	left	424	1	1	1
cipora_2009_005	26	M	start_even_right	2	155	1	right	526	1	1	1
cipora_2009_005	26	M	start_even_right	2	156	1	right	493	1	1	1
cipora_2009_005	26	M	start_even_right	2	157	2	left	370	1	1	1
cipora_2009_005	26	M	start_even_right	2	158	3	right	485	1	1	1
cipora_2009_005	26	M	start_even_right	2	159	1	right	388	0	0	0
cipora_2009_005	26	M	start_even_right	2	160	1	right	558	1	1	1
cipora_2009_005	26	M	start_even_right	2	161	7	right	594	1	1	1
cipora_2009_005	26	M	start_even_right	2	162	8	left	410	1	1	1
cipora_2009_005	26	M	start_even_right	2	163	3	right	494	1	1	1
cipora_2009_005	26	M	start_even_right	2	164	9	right	477	1	1	1
cipora_2009_005	26	M	start_even_right	2	165	2	left	514	1	1	1
cipora_2009_005	26	M	start_even_right	2	166	4	left	497	1	1	1
cipora_2009_005	26	M	start_even_right	2	167	9	right	453	1	1	1
cipora_2009_005	26	M	start_even_right	2	168	6	left	537	1	1	1
cipora_2009_005	26	M	start_even_right	2	169	7	right	426	1	1	1
cipora_2009_005	26	M	start_even_right	2	170	1	right	489	0	0	0
cipora_2009_005	26	M	start_even_right	2	171	8	left	424	1	1	1
cipora_2009_005	26	M	start_even_right	2	172	8	left	618	1	1	1
cipora_2009_005	26	M	start_even_right	2	173	1	right	405	1	1	1
cipora_2009_005	26	M	start_even_right	2	174	1	right	602	1	1	1
cipora_2009_005	26	M	start_even_right	2	175	3	right	573	1	1	1
cipora_2009_005	26	M	start_even_right	2	176	4	left	502	1	1	1
cipora_2009_005	26	M	start_even_right	2	177	7	right	359	1	1	1
cipora_2009_005	26	M	start_even_right	2	178	9	right	654	1	1	1
cipora_2009_005	26	M	start_even_right	2	179	2	left	512	1	1	1
cipora_2009_005	26	M	start_even_right	2	180	9	right	378	1	1	1
cipora_2009_005	26	M	start_even_right	2	181	4	left	518	1	1	1
cipora_2009_005	26	M	start_even_right	2	182	4	left	416	1	1	1
cipora_2009_005	26	M	start_even_right	2	183	8	left	516	1	1	1
cipora_2009_005	26	M	start_even_right	2	184	3	right	421	1	1	1
cipora_2009_005	26	M	start_even_right	2	185	4	left	545	1	1	1
cipora_2009_005	26	M	start_even_right	2	186	1	right	462	1	1	1
cipora_2009_005	26	M	start_even_right	2	187	9	right	602	0	0	0
cipora_2009_005	26	M	start_even_right	2	188	9	right	513	1	1	1
cipora_2009_005	26	M	start_even_right	2	189	2	left	413	1	1	1
cipora_2009_005	26	M	start_even_right	2	190	7	right	450	1	1	1
cipora_2009_005	26	M	start_even_right	2	191	4	left	492	1	1	1
cipora_2009_005	26	M	start_even_right	2	192	9	right	624	1	1	1
cipora_2009_006	21	F	start_even_right	1	1	6	right	403	1	1	1
cipora_2009_006	21	F	start_even_right	1	2	9	left	429	0	0	0
cipora_2009_006	21	F	start_even_right	1	3	6	right	608	1	1	1
cipora_2009_006	21	F	start_even_right	1	4	9	left	468	0	0	0
cipora_2009_006	21	F	start_even_right	1	5	3	left	611	1	1	1
cipora_2009_006	21	F	start_even_right	1	6	7	left	402	1	1	1
cipora_2009_006	21	F	start_even_right	1	7	7	left	465	1	1	1
cipora_2009_006	21	F	start_even_right	1	8	7	left	380	1	1	1
cipora_2009_006	21	F	start_even_right	1	9	2	right	410	1	1	1
cipora_2009_006	21	F	start_even_right	1	10	4	right	369	1	1	1
cipora_2009_006	21	F	start_even_right	1	11	8	right	463	1	1	1
cipora_2009_006	21	F	start_even_right	1	12	8	right	432	1	1	1
cipora_2009_006	21	F	start_even_right	1	13	9	left	518	1	1	1
cipora_2009_006	21	F	start_even_right	1	14	1	left	421	1	1	1
cipora_2009_006	21	F	start_even_right	1	15	9	left	405	1	1	1
cipora_2009_006	21	F	start_even_right	1	16	7	left	447	1	1	1
cipora_2009_006	21	F	start_even_right	1	17	6	right	345	1	1	1
cipora_2009_006	21	F	start_even_right	1	18	6	right	327	1	1	1
cipora_2009_006	21	F	start_even_right	1	19	3	left	366	0	0	0
cipora_2009_006	21	F	start_even_right	1	20	3	left	356	1	1	1
cipora_2009_006	21	F	start_even_right	1	21	2	right	427	1	1	1
cipora_2009_006	21	F	start_even_right	1	22	8	right	441	1	1	1
cipora_2009_006	21	F	start_even_right	1	23	9	left	467	1	1	1
cipora_2009_006	21	F	start_even_right	1	24	4	right	474	0	0	0
cipora_2009_006	21	F	start_even_right	1	25	9	left	473	1	1	1
cipora_2009_006	21	F	start_even_right	1	26	1	left	529	1	1	1
cipora_2009_006	21	F	start_even_right	1	27	1	left	611	1	1	1
cipora_2009_006	21	F	start_even_right	1	28	4	right	449	1	1	1
cipora_2009_006	21	F	start_even_right	1	29	2	right	410	1	1	1
cipora_2009_006	21	F	start_even_right	1	30	8	right	440	1	1	1
cipora_2009_006	21	F	start_even_right	1	31	4	right	438	1	1	1
cipora_2009_006	21	F	start_even_right	1	32	9	left	448	1	1	1
cipora_2009_006	21	F	start_even_right	1	33	6	right	427	0	0	0
cipora_2009_006	21	F	start_even_right	1	34	3	left	635	1	1	1
cipora_2009_006	21	F	start_even_right	1	35	7	left	468	1	1	1
cipora_2009_006	21	F	start_even_right	1	36	8	right	371	1	1	1
cipora_2009_006	21	F	start_even_right	1	37	2	right	432	1	1	1
cipora_2009_006	21	F	start_even_right	1	38	9	left	419	1	1	1
cipora_2009_006	21	F	start_even_right	1	39	9	left	380	1	1	1
cipora_2009_006	21	F	start_even_right	1	40	1	left	545	1	1	1
cipora_2009_006	21	F	start_even_right	1	41	6	right	451	1	1	1
cipora_2009_006	21	F	start_even_right	1	42	8	right	394	1	1	1
cipora_2009_006	21	F	start_even_right	1	43	6	right	369	1	1	1
cipora_2009_006	21	F	start_even_right	1	44	6	right	369	1	1	1
cipora_2009_006	21	F	start_even_right	1	45	8	right	372	1	1	1
cipora_2009_006	21	F	start_even_right	1	46	1	left	485	0	0	0
cipora_2009_006	21	F	start_even_right	1	47	4	right	511	1	1	1
cipora_2009_006	21	F	start_even_right	1	48	2	right	430	1	1	1
cipora_2009_006	21	F	start_even_right	1	49	2	right	407	1	1	1
cipora_2009_006	21	F	start_even_right	1	50	6	right	556	1	1	1
cipora_2009_006	21	F	start_even_right	1	51	8	right	388	1	1	1
cipora_2009_006	21	F	start_even_right	1	52	2	right	410	1	1	1
cipora_2009_006	21	F	start_even_right	1	53	8	right	363	1	1	1
cipora_2009_006	21	F	start_even_right	1	54	2	right	366	1	1	1
cipora_2009_006	21	F	start_even_right	1	55	1	left	374	1	1	1
cipora_2009_006	21	F	start_even_right	1	56	4	right	551	1	1	1
cipora_2009_006	21	F	start_even_right	1	57	1	left	327	0	0	0
cipora_2009_006	21	F	start_even_right	1	58	1	left	427	1	1	1
cipora_2009_006	21	F	start_even_right	1	59	2	right	470	1	1	1
cipora_2009_006	21	F	start_even_right	1	60	3	left	498	0	0	0
cipora_2009_006	21	F	start_even_right	1	61	8	right	578	1	1	1
cipora_2009_006	21	F	start_even_right	1	62	3	left	404	1	1	1
cipora_2009_006	21	F	start_even_right	1	63	3	left	399	1	1	1
cipora_2009_006	21	F	start_even_right	1	64	2	right	523	1	1	1
cipora_2009_006	21	F	start_even_right	1	65	7	left	515	1	1	1
cipora_2009_006	21	F	start_even_right	1	66	3	left	473	0	0	0
cipora_2009_006	21	F	start_even_right	1	67	1	left	572	1	1	1
cipora_2009_006	21	F	start_even_right	1	68	4	right	627	1	1	1
cipora_2009_006	21	F	start_even_right	1	69	1	left	512	1	1	1
cipora_2009_006	21	F	start_even_right	1	70	1	left	367	1	1	1
cipora_2009_006	21	F	start_even_right	1	71	1	left	374	1	1	1
cipora_2009_006	21	F	start_even_right	1	72	7	left	523	1	1	1
cipora_2009_006	21	F	start_even_right	1	73	4	right	468	1	1	1
cipora_2009_006	21	F	start_even_right	1	74	8	right	443	1	1	1
cipora_2009_006	21	F	start_even_right	1	75	7	left	474	1	1	1
cipora_2009_006	21	F	start_even_right	1	76	2	right	474	0	0	0
cipora_2009_006	21	F	start_even_right	1	77	3	left	445	1	1	1
cipora_2009_006	21	F	start_even_right	1	78	8	right	498	1	1	1
cipora_2009_006	21	F	start_even_right	1	79	2	right	421	1	1	1
cipora_2009_006	21	F	start_even_right	1	80	3	left	443	1	1	1
cipora_2009_006	21	F	start_even_right	1	81	3	left	572	0	0	0
cipora_2009_006	21	F	start_even_right	1	82	4	right	594	1	1	1
cipora_2009_006	21	F	start_even_right	1	83	9	left	528	1	1	1
cipora_2009_006	21	F	start_even_right	1	84	7	left	470	1	1	1
cipora_2009_006	21	F	start_even_right	1	85	6	right	611	1	1	1
cipora_2009_006	21	F	start_even_right	1	86	3	left	495	1	1	1
cipora_2009_006	21	F	start_even_right	1	87	9	left	617	1	1	1
cipora_2009_006	21	F	start_even_right	1	88	6	right	614	1	1	1
cipora_2009_006	21	F	start_even_right	1	89	7	left	572	1	1	1
cipora_2009_006	21	F	start_even_right	1	90	7	left	611	1	1	1
cipora_2009_006	21	F	start_even_right	1	91	7	left	377	1	1	1
cipora_2009_006	21	F	start_even_right	1	92	4	right	572	1	1	1
cipora_2009_006	21	F	start_even_right	1	93	6	right	511	1	1	1
cipora_2009_006	21	F	start_even_right	1	94	9	left	523	1	1	1
cipora_2009_006	21	F	start_even_right	1	95	4	right	632	1	1	1
cipora_2009_006	21	F	start_even_right	1	96	4	right	462	1	1	1
cipora_2009_006	21	F	start_even_right	2	97	3	right	452	1	1	1
cipora_2009_006	21	F	start_even_right	2	98	9	right	460	1	1	1
cipora_2009_006	21	F	start_even_right	2	99	3	right	523	1	1	1
cipora_2009_006	21	F	start_even_right	2	100	7	right	525	1	1	1
cipora_2009_006	21	F	start_even_right	2	101	6	left	460	1	1	1
cipora_2009_006	21	F	start_even_right	2	102	1	right	594	1	1	1
cipora_2009_006	21	F	start_even_right	2	103	8	left	413	1	1	1
cipora_2009_006	21	F	start_even_right	2	104	9	right	482	1	1	1
cipora_2009_006	21	F	start_even_right	2	105	1	right	463	0	0	0
cipora_2009_006	21	F	start_even_right	2	106	6	left	537	1	1	1
cipora_2009_006	21	F	start_even_right	2	107	1	right	602	1	1	1
cipora_2009_006	21	F	start_even_right	2	108	9	right	531	1	1	1
cipora_2009_006	21	F	start_even_right	2	109	8	left	490	1	1	1
cipora_2009_006	21	F	start_even_right	2	110	8	left	424	1	1	1
cipora_2009_006	21	F	start_even_right	2	111	3	right	493	1	1	1
cipora_2009_006	21	F	start_even_right	2	112	7	right	534	1	1	1
cipora_2009_006	21	F	start_even_right	2	113	8	left	470	1	1	1
cipora_2009_006	21	F	start_even_right	2	114	1	right	452	0	0	0
cipora_2009_006	21	F	start_even_right	2	115	2	left	504	1	1	1
cipora_2009_006	21	F	start_even_right	2	116	6	left	405	1	1	1
cipora_2009_006	21	F	start_even_right	2	117	1	right	360	1	1	1
cipora_2009_006	21	F	start_even_right	2	118	3	right	457	1	1	1
cipora_2009_006	21	F	start_even_right	2	119	3	right	399	1	1	1
cipora_2009_006	21	F	start_even_right	2	120	2	left	386	1	1	1
cipora_2009_006	21	F	start_even_right	2	121	3	right	422	1	1	1
cipora_2009_006	21	F	start_even_right	2	122	7	right	429	1	1	1
cipora_2009_006	21	F	start_even_right	2	123	2	left	452	1	1	1
cipora_2009_006	21	F	start_even_right	2	124	9	right	408	1	1	1
cipora_2009_006	21	F	start_even_right	2	125	1	right	405	1	1	1
cipora_2009_006	21	F	start_even_right	2	126	2	left	372	1	1	1
cipora_2009_006	21	F	start_even_right	2	127	4	left	503	1	1	1
cipora_2009_006	21	F	start_even_right	2	128	4	left	355	1	1	1
cipora_2009_006	21	F	start_even_right	2	129	8	left	485	0	0	0
cipora_2009_006	21	F	start_even_right	2	130	9	right	446	1	1	1
cipora_2009_006	21	F	start_even_right	2	131	9	right	391	1	1	1
cipora_2009_006	21	F	start_even_right	2	132	3	right	487	0	0	0
cipora_2009_006	21	F	start_even_right	2	133	3	right	394	1	1	1
cipora_2009_006	21	F	start_even_right	2	134	3	right	388	1	1	1
cipora_2009_006	21	F	start_even_right	2	135	2	left	484	1	1	1
cipora_2009_006	21	F	start_even_right	2	136	9	right	430	1	1	1
cipora_2009_006	21	F	start_even_right	2	137	4	left	702	1	1	0
cipora_2009_006	21	F	start_even_right	2	138	6	left	369	0	0	0
cipora_2009_006	21	F	start_even_right	2	139	2	left	391	1	1	1
cipora_2009_006	21	F	start_even_right	2	140	4	left	359	1	1	1
cipora_2009_006	21	F	start_even_right	2	141	7	right	438	1	1	1
cipora_2009_006	21	F	start_even_right	2	142	2	left	424	1	1	1
cipora_2009_006	21	F	start_even_right	2	143	2	left	422	1	1	1
cipora_2009_006	21	F	start_even_right	2	144	6	left	495	1	1	1
cipora_2009_006	21	F	start_even_right	2	145	3	right	444	1	1	1
cipora_2009_006	21	F	start_even_right	2	146	9	right	407	1	1	1
cipora_2009_006	21	F	start_even_right	2	147	4	left	471	1	1	1
cipora_2009_006	21	F	start_even_right	2	148	8	left	425	1	1	1
cipora_2009_006	21	F	start_even_right	2	149	4	left	391	1	1	1
cipora_2009_006	21	F	start_even_right	2	150	2	left	383	1	1	1
cipora_2009_006	21	F	start_even_right	2	151	4	left	372	1	1	1
cipora_2009_006	21	F	start_even_right	2	152	8	left	521	1	1	1
cipora_2009_006	21	F	start_even_right	2	153	1	right	469	1	1	1
cipora_2009_006	21	F	start_even_right	2	154	7	right	359	1	1	1
cipora_2009_006	21	F	start_even_right	2	155	8	left	359	1	1	1
cipora_2009_006	21	F	start_even_right	2	156	7	right	389	1	1	1
cipora_2009_006	21	F	start_even_right	2	157	8	left	488	1	1	1
cipora_2009_006	21	F	start_even_right	2	158	6	left	397	1	1	1
cipora_2009_006	21	F	start_even_right	2	159	1	right	329	1	1	1
cipora_2009_006	21	F	start_even_right	2	160	7	right	400	1	1	1
cipora_2009_006	21	F	start_even_right	2	161	9	right	553	1	1	1
cipora_2009_006	21	F	start_even_right	2	162	7	right	377	1	1	1
cipora_2009_006	21	F	start_even_right	2	163	1	right	575	1	1	1
cipora_2009_006	21	F	start_even_right	2	164	9	right	402	1	1	1
cipora_2009_006	21	F	start_even_right	2	165	2	left	477	1	1	1
cipora_2009_006	21	F	start_even_right	2	166	2	left	342	1	1	1
cipora_2009_006	21	F	start_even_right	2	167	3	right	430	1	1	1
cipora_2009_006	21	F	start_even_right	2	168	2	left	411	1	1	1
cipora_2009_006	21	F	start_even_right	2	169	8	left	402	1	1	1
cipora_2009_006	21	F	start_even_right	2	170	4	left	366	1	1	1
cipora_2009_006	21	F	start_even_right	2	171	9	right	356	0	0	0
cipora_2009_006	21	F	start_even_right	2	172	1	right	363	1	1	1
cipora_2009_006	21	F	start_even_right	2	173	9	right	397	1	1	1
cipora_2009_006	21	F	start_even_right	2	174	6	left	369	0	0	0
cipora_2009_006	21	F	start_even_right	2	175	1	right	363	1	1	1
cipora_2009_006	21	F	start_even_right	2	176	6	left	361	1	1	1
cipora_2009_006	21	F	start_even_right	2	177	7	right	496	1	1	1
cipora_2009_006	21	F	start_even_right	2	178	6	left	413	1	1	1
cipora_2009_006	21	F	start_even_right	2	179	7	right	345	1	1	1
cipora_2009_006	21	F	start_even_right	2	180	8	left	309	1	1	1
cipora_2009_006	21	F	start_even_right	2	181	8	left	537	1	1	1
cipora_2009_006	21	F	start_even_right	2	182	1	right	374	1	1	1
cipora_2009_006	21	F	start_even_right	2	183	6	left	407	1	1	1
cipora_2009_006	21	F	start_even_right	2	184	4	left	405	1	1	1
cipora_2009_006	21	F	start_even_right	2	185	4	left	369	1	1	1
cipora_2009_006	21	F	start_even_right	2	186	6	left	309	1	1	1
cipora_2009_006	21	F	start_even_right	2	187	4	left	337	1	1	1
cipora_2009_006	21	F	start_even_right	2	188	4	left	465	1	1	1
cipora_2009_006	21	F	start_even_right	2	189	7	right	361	0	0	0
cipora_2009_006	21	F	start_even_right	2	190	7	right	315	0	0	0
cipora_2009_006	21	F	start_even_right	2	191	6	left	479	1	1	1
cipora_2009_006	21	F	start_even_right	2	192	3	right	350	1	1	1
cipora_2009_007	21	F	start_even_right	1	1	4	right	696	1	1	1
cipora_2009_007	21	F	start_even_right	1	2	6	right	520	0	0	0
cipora_2009_007	21	F	start_even_right	1	3	1	left	1115	1	1	0
cipora_2009_007	21	F	start_even_right	1	4	1	left	450	1	1	1
cipora_2009_007	21	F	start_even_right	1	5	7	left	553	1	1	1
cipora_2009_007	21	F	start_even_right	1	6	9	left	544	1	1	1
cipora_2009_007	21	F	start_even_right	1	7	7	left	404	1	1	1
cipora_2009_007	21	F	start_even_right	1	8	9	left	404	1	1	1
cipora_2009_007	21	F	start_even_right	1	9	2	right	607	1	1	1
cipora_2009_007	21	F	start_even_right	1	10	3	left	585	1	1	1
cipora_2009_007	21	F	start_even_right	1	11	2	right	512	1	1	1
cipora_2009_007	21	F	start_even_right	1	12	9	left	547	1	1	1
cipora_2009_007	21	F	start_even_right	1	13	7	left	634	1	1	1
cipora_2009_007	21	F	start_even_right	1	14	7	left	425	1	1	1
cipora_2009_007	21	F	start_even_right	1	15	8	right	542	1	1	1
cipora_2009_007	21	F	start_even_right	1	16	3	left	553	1	1	1
cipora_2009_007	21	F	start_even_right	1	17	3	left	485	1	1	1
cipora_2009_007	21	F	start_even_right	1	18	3	left	404	1	1	1
cipora_2009_007	21	F	start_even_right	1	19	4	right	393	0	0	0
cipora_2009_007	21	F	start_even_right	1	20	1	left	631	1	1	1
cipora_2009_007	21	F	start_even_right	1	21	4	right	504	1	1	1
cipora_2009_007	21	F	start_even_right	1	22	2	right	448	1	1	1
cipora_2009_007	21	F	start_even_right	1	23	1	left	550	1	1	1
cipora_2009_007	21	F	start_even_right	1	24	3	left	688	1	1	1
cipora_2009_007	21	F	start_even_right	1	25	3	left	639	1	1	1
cipora_2009_007	21	F	start_even_right	1	26	7	left	1078	1	1	0
cipora_2009_007	21	F	start_even_right	1	27	7	left	474	1	1	1
cipora_2009_007	21	F	start_even_right	1	28	7	left	411	1	1	1
cipora_2009_007	21	F	start_even_right	1	29	3	left	475	1	1	1
cipora_2009_007	21	F	start_even_right	1	30	2	right	758	1	1	1
cipora_2009_007	21	F	start_even_right	1	31	8	right	829	0	0	0
cipora_2009_007	21	F	start_even_right	1	32	4	right	699	1	1	1
cipora_2009_007	21	F	start_even_right	1	33	2	right	450	1	1	1
cipora_2009_007	21	F	start_even_right	1	34	8	right	512	1	1	1
cipora_2009_007	21	F	start_even_right	1	35	9	left	514	1	1	1
cipora_2009_007	21	F	start_even_right	1	36	4	right	418	1	1	1
cipora_2009_007	21	F	start_even_right	1	37	8	right	469	1	1	1
cipora_2009_007	21	F	start_even_right	1	38	6	right	420	1	1	1
cipora_2009_007	21	F	start_even_right	1	39	9	left	570	1	1	1
cipora_2009_007	21	F	start_even_right	1	40	2	right	507	1	1	1
cipora_2009_007	21	F	start_even_right	1	41	6	right	729	1	1	1
cipora_2009_007	21	F	start_even_right	1	42	4	right	480	1	1	1
cipora_2009_007	21	F	start_even_right	1	43	8	right	623	1	1	1
cipora_2009_007	21	F	start_even_right	1	44	6	right	507	0	0	0
cipora_2009_007	21	F	start_even_right	1	45	8	right	696	1	1	1
cipora_2009_007	21	F	start_even_right	1	46	7	left	712	1	1	1
cipora_2009_007	21	F	start_even_right	1	47	2	right	723	1	1	1
cipora_2009_007	21	F	start_even_right	1	48	8	right	412	1	1	1
cipora_2009_007	21	F	start_even_right	1	49	1	left	1077	1	1	0
cipora_2009_007	21	F	start_even_right	1	50	1	left	655	1	1	1
cipora_2009_007	21	F	start_even_right	1	51	6	right	628	1	1	1
cipora_2009_007	21	F	start_even_right	1	52	2	right	669	1	1	1
cipora_2009_007	21	F	start_even_right	1	53	6	right	612	1	1	1
cipora_2009_007	21	F	start_even_right	1	54	1	left	577	1	1	1
cipora_2009_007	21	F	start_even_right	1	55	8	right	361	1	1	1
cipora_2009_007	21	F	start_even_right	1	56	1	left	577	0	0	0
cipora_2009_007	21	F	start_even_right	1	57	9	left	643	1	1	1
cipora_2009_007	21	F	start_even_right	1	58	8	right	577	1	1	1
cipora_2009_007	21	F	start_even_right	1	59	6	right	369	0	0	0
cipora_2009_007	21	F	start_even_right	1	60	2	right	547	1	1	1
cipora_2009_007	21	F	start_even_right	1	61	4	right	396	1	1	1
cipora_2009_007	21	F	start_even_right	1	62	6	right	395	1	1	1
cipora_2009_007	21	F	start_even_right	1	63	7	left	556	1	1	1
cipora_2009_007	21	F	start_even_right	1	64	1	left	512	1	1	1
cipora_2009_007	21	F	start_even_right	1	65	4	right	612	1	1	1
cipora_2009_007	21	F	start_even_right	1	66	3	left	1037	1	1	0
cipora_2009_007	21	F	start_even_right	1	67	9	left	528	1	1	1
cipora_2009_007	21	F	start_even_right	1	68	4	right	575	1	1	1
cipora_2009_007	21	F	start_even_right	1	69	6	right	463	1	1	1
cipora_2009_007	21	F	start_even_right	1	70	3	left	775	1	1	1
cipora_2009_007	21	F	start_even_right	1	71	9	left	474	1	1	1
cipora_2009_007	21	F	start_even_right	1	72	2	right	561	1	1	1
cipora_2009_007	21	F	start_even_right	1	73	9	left	458	1	1	1
cipora_2009_007	21	F	start_even_right	1	74	2	right	572	1	1	1
cipora_2009_007	21	F	start_even_right	1	75	6	right	398	1	1	1
cipora_2009_007	21	F	start_even_right	1	76	9	left	505	1	1	1
cipora_2009_007	21	F	start_even_right	1	77	3	left	799	1	1	1
cipora_2009_007	21	F	start_even_right	1	78	6	right	485	1	1	1
cipora_2009_007	21	F	start_even_right	1	79	7	left	512	1	1	1
cipora_2009_007	21	F	start_even_right	1	80	9	left	553	1	1	1
cipora_2009_007	21	F	start_even_right	1	81	4	right	718	1	1	1
cipora_2009_007	21	F	start_even_right	1	82	4	right	398	1	1	1
cipora_2009_007	21	F	start_even_right	1	83	8	right	512	1	1	1
cipora_2009_007	21	F	start_even_right	1	84	1	left	488	1	1	1
cipora_2009_007	21	F	start_even_right	1	85	3	left	964	1	1	0
cipora_2009_007	21	F	start_even_right	1	86	9	left	480	1	1	1
cipora_2009_007	21	F	start_even_right	1	87	3	left	421	1	1	1
cipora_2009_007	21	F	start_even_right	1	88	7	left	348	1	1	1
cipora_2009_007	21	F	start_even_right	1	89	1	left	480	1	1	1
cipora_2009_007	21	F	start_even_right	1	90	8	right	658	1	1	1
cipora_2009_007	21	F	start_even_right	1	91	8	right	375	1	1	1
cipora_2009_007	21	F	start_even_right	1	92	6	right	758	1	1	1
cipora_2009_007	21	F	start_even_right	1	93	4	right	613	1	1	1
cipora_2009_007	21	F	start_even_right	1	94	2	right	780	1	1	1
cipora_2009_007	21	F	start_even_right	1	95	7	left	551	1	1	1
cipora_2009_007	21	F	start_even_right	1	96	1	left	515	1	1	1
cipora_2009_007	21	F	start_even_right	2	97	9	right	826	1	1	1
cipora_2009_007	21	F	start_even_right	2	98	2	left	512	1	1	1
cipora_2009_007	21	F	start_even_right	2	99	2	left	480	1	1	1
cipora_2009_007	21	F	start_even_right	2	100	1	right	480	0	0	0
cipora_2009_007	21	F	start_even_right	2	101	3	right	681	1	1	1
cipora_2009_007	21	F	start_even_right	2	102	4	left	520	1	1	1
cipora_2009_007	21	F	start_even_right	2	103	4	left	678	1	1	1
cipora_2009_007	21	F	start_even_right	2	104	7	right	669	1	1	1
cipora_2009_007	21	F	start_even_right	2	105	3	right	653	1	1	1
cipora_2009_007	21	F	start_even_right	2	106	7	right	645	1	1	1
cipora_2009_007	21	F	start_even_right	2	107	1	right	442	0	0	0
cipora_2009_007	21	F	start_even_right	2	108	7	right	358	1	1	1
cipora_2009_007	21	F	start_even_right	2	109	4	left	540	1	1	1
cipora_2009_007	21	F	start_even_right	2	110	7	right	385	1	1	1
cipora_2009_007	21	F	start_even_right	2	111	6	left	693	0	0	0
cipora_2009_007	21	F	start_even_right	2	112	6	left	659	1	1	1
cipora_2009_007	21	F	start_even_right	2	113	8	left	558	1	1	1
cipora_2009_007	21	F	start_even_right	2	114	2	left	336	1	1	1
cipora_2009_007	21	F	start_even_right	2	115	3	right	423	0	0	0
cipora_2009_007	21	F	start_even_right	2	116	9	right	459	1	1	1
cipora_2009_007	21	F	start_even_right	2	117	8	left	620	1	1	1
cipora_2009_007	21	F	start_even_right	2	118	2	left	1354	1	1	0
cipora_2009_007	21	F	start_even_right	2	119	6	left	682	1	1	1
cipora_2009_007	21	F	start_even_right	2	120	3	right	540	1	1	1
cipora_2009_007	21	F	start_even_right	2	121	3	right	347	1	1	1
cipora_2009_007	21	F	start_even_right	2	122	4	left	328	0	0	0
cipora_2009_007	21	F	start_even_right	2	123	7	right	694	1	1	1
cipora_2009_007	21	F	start_even_right	2	124	1	right	962	1	1	0
cipora_2009_007	21	F	start_even_right	2	125	3	right	349	1	1	1
cipora_2009_007	21	F	start_even_right	2	126	1	right	377	1	1	1
cipora_2009_007	21	F	start_even_right	2	127	1	right	307	1	1	1
cipora_2009_007	21	F	start_even_right	2	128	8	left	71	0	0	0
cipora_2009_007	21	F	start_even_right	2	129	8	left	523	1	1	1
cipora_2009_007	21	F	start_even_right	2	130	8	left	388	1	1	1
cipora_2009_007	21	F	start_even_right	2	131	6	left	448	1	1	1
cipora_2009_007	21	F	start_even_right	2	132	3	right	498	0	0	0
cipora_2009_007	21	F	start_even_right	2	133	1	right	611	1	1	1
cipora_2009_007	21	F	start_even_right	2	134	6	left	607	1	1	1
cipora_2009_007	21	F	start_even_right	2	135	2	left	1091	1	1	0
cipora_2009_007	21	F	start_even_right	2	136	6	left	631	1	1	1
cipora_2009_007	21	F	start_even_right	2	137	2	left	388	1	1	1
cipora_2009_007	21	F	start_even_right	2	138	6	left	410	1	1	1
cipora_2009_007	21	F	start_even_right	2	139	9	right	537	1	1	1
cipora_2009_007	21	F	start_even_right	2	140	4	left	472	1	1	1
cipora_2009_007	21	F	start_even_right	2	141	8	left	594	1	1	1
cipora_2009_007	21	F	start_even_right	2	142	3	right	681	1	1	1
cipora_2009_007	21	F	start_even_right	2	143	2	left	913	1	1	0
cipora_2009_007	21	F	start_even_right	2	144	4	left	512	1	1	1
cipora_2009_007	21	F	start_even_right	2	145	1	right	396	1	1	1
cipora_2009_007	21	F	start_even_right	2	146	8	left	523	1	1	1
cipora_2009_007	21	F	start_even_right	2	147	1	right	1265	1	1	0
cipora_2009_007	21	F	start_even_right	2	148	4	left	507	1	1	1
cipora_2009_007	21	F	start_even_right	2	149	3	right	1359	1	1	0
cipora_2009_007	21	F	start_even_right	2	150	8	left	661	1	1	1
cipora_2009_007	21	F	start_even_right	2	151	2	left	523	1	1	1
cipora_2009_007	21	F	start_even_right	2	152	4	left	469	1	1	1
cipora_2009_007	21	F	start_even_right	2	153	6	left	537	1	1	1
cipora_2009_007	21	F	start_even_right	2	154	1	right	615	1	1	1
cipora_2009_007	21	F	start_even_right	2	155	4	left	610	1	1	1
cipora_2009_007	21	F	start_even_right	2	156	4	left	556	1	1	1
cipora_2009_007	21	F	start_even_right	2	157	9	right	740	1	1	1
cipora_2009_007	21	F	start_even_right	2	158	6	left	569	1	1	1
cipora_2009_007	21	F	start_even_right	2	159	2	left	983	1	1	0
cipora_2009_007	21	F	start_even_right	2	160	1	right	567	1	1	1
cipora_2009_007	21	F	start_even_right	2	161	9	right	1227	0	0	0
cipora_2009_007	21	F	start_even_right	2	162	7	right	572	1	1	1
cipora_2009_007	21	F	start_even_right	2	163	2	left	586	1	1	1
cipora_2009_007	21	F	start_even_right	2	164	9	right	544	1	1	1
cipora_2009_007	21	F	start_even_right	2	165	1	right	1162	1	1	0
cipora_2009_007	21	F	start_even_right	2	166	8	left	710	0	0	0
cipora_2009_007	21	F	start_even_right	2	167	7	right	785	0	0	0
cipora_2009_007	21	F	start_even_right	2	168	7	right	627	1	1	1
cipora_2009_007	21	F	start_even_right	2	169	7	right	444	1	1	1
cipora_2009_007	21	F	start_even_right	2	170	9	right	650	1	1	1
cipora_2009_007	21	F	start_even_right	2	171	6	left	769	1	1	1
cipora_2009_007	21	F	start_even_right	2	172	6	left	572	1	1	1
cipora_2009_007	21	F	start_even_right	2	173	9	right	599	1	1	1
cipora_2009_007	21	F	start_even_right	2	174	9	right	474	1	1	1
cipora_2009_007	21	F	start_even_right	2	175	8	left	740	1	1	1
cipora_2009_007	21	F	start_even_right	2	176	2	left	0	0	0	0
cipora_2009_007	21	F	start_even_right	2	177	7	right	555	1	1	1
cipora_2009_007	21	F	start_even_right	2	178	4	left	545	0	0	0
cipora_2009_007	21	F	start_even_right	2	179	3	right	808	1	1	1
cipora_2009_007	21	F	start_even_right	2	180	9	right	504	1	1	1
cipora_2009_007	21	F	start_even_right	2	181	8	left	380	0	0	0
cipora_2009_007	21	F	start_even_right	2	182	3	right	789	1	1	1
cipora_2009_007	21	F	start_even_right	2	183	9	right	1159	1	1	0
cipora_2009_007	21	F	start_even_right	2	184	9	right	447	1	1	1
cipora_2009_007	21	F	start_even_right	2	185	8	left	377	0	0	0
cipora_2009_007	21	F	start_even_right	2	186	1	right	583	1	1	1
cipora_2009_007	21	F	start_even_right	2	187	3	right	545	1	1	1
cipora_2009_007	21	F	start_even_right	2	188	7	right	750	1	1	1
cipora_2009_007	21	F	start_even_right	2	189	2	left	504	1	1	1
cipora_2009_007	21	F	start_even_right	2	190	6	left	591	1	1	1
cipora_2009_007	21	F	start_even_right	2	191	4	left	613	1	1	1
cipora_2009_007	21	F	start_even_right	2	192	7	right	623	1	1	1
cipora_2009_008	21	F	start_even_right	1	1	1	left	412	1	1	1
cipora_2009_008	21	F	start_even_right	1	2	6	right	438	1	1	1
cipora_2009_008	21	F	start_even_right	1	3	9	left	512	1	1	1
cipora_2009_008	21	F	start_even_right	1	4	7	left	390	1	1	1
cipora_2009_008	21	F	start_even_right	1	5	6	right	396	1	1	1
cipora_2009_008	21	F	start_even_right	1	6	4	right	435	0	0	0
cipora_2009_008	21	F	start_even_right	1	7	6	right	421	1	1	1
cipora_2009_008	21	F	start_even_right	1	8	1	left	415	1	1	1
cipora_2009_008	21	F	start_even_right	1	9	1	left	391	1	1	1
cipora_2009_008	21	F	start_even_right	1	10	8	right	399	1	1	1
cipora_2009_008	21	F	start_even_right	1	11	3	left	427	1	1	1
cipora_2009_008	21	F	start_even_right	1	12	9	left	432	0	0	0
cipora_2009_008	21	F	start_even_right	1	13	4	right	513	1	1	1
cipora_2009_008	21	F	start_even_right	1	14	9	left	416	0	0	0
cipora_2009_008	21	F	start_even_right	1	15	3	left	449	1	1	1
cipora_2009_008	21	F	start_even_right	1	16	1	left	366	1	1	1
cipora_2009_008	21	F	start_even_right	1	17	2	right	506	1	1	1
cipora_2009_008	21	F	start_even_right	1	18	6	right	511	1	1	1
cipora_2009_008	21	F	start_even_right	1	19	1	left	361	1	1	1
cipora_2009_008	21	F	start_even_right	1	20	1	left	352	1	1	1
cipora_2009_008	21	F	start_even_right	1	21	3	left	933	1	1	0
cipora_2009_008	21	F	start_even_right	1	22	3	left	361	1	1	1
cipora_2009_008	21	F	start_even_right	1	23	4	right	496	1	1	1
cipora_2009_008	21	F	start_even_right	1	24	2	right	490	1	1	1
cipora_2009_008	21	F	start_even_right	1	25	3	left	441	1	1	1
cipora_2009_008	21	F	start_even_right	1	26	8	right	438	1	1	1
cipora_2009_008	21	F	start_even_right	1	27	6	right	504	1	1	1
cipora_2009_008	21	F	start_even_right	1	28	7	left	403	1	1	1
cipora_2009_008	21	F	start_even_right	1	29	8	right	448	1	1	1
cipora_2009_008	21	F	start_even_right	1	30	8	right	454	1	1	1
cipora_2009_008	21	F	start_even_right	1	31	8	right	388	1	1	1
cipora_2009_008	21	F	start_even_right	1	32	6	right	394	1	1	1
cipora_2009_008	21	F	start_even_right	1	33	1	left	504	1	1	1
cipora_2009_008	21	F	start_even_right	1	34	3	left	356	1	1	1
cipora_2009_008	21	F	start_even_right	1	35	1	left	305	1	1	1
cipora_2009_008	21	F	start_even_right	1	36	7	left	355	1	1	1
cipora_2009_008	21	F	start_even_right	1	37	4	right	438	1	1	1
cipora_2009_008	21	F	start_even_right	1	38	9	left	314	0	0	0
cipora_2009_008	21	F	start_even_right	1	39	9	left	449	0	0	0
cipora_2009_008	21	F	start_even_right	1	40	1	left	405	1	1	1
cipora_2009_008	21	F	start_even_right	1	41	7	left	396	1	1	1
cipora_2009_008	21	F	start_even_right	1	42	9	left	438	0	0	0
cipora_2009_008	21	F	start_even_right	1	43	2	right	424	0	0	0
cipora_2009_008	21	F	start_even_right	1	44	2	right	429	1	1	1
cipora_2009_008	21	F	start_even_right	1	45	6	right	424	1	1	1
cipora_2009_008	21	F	start_even_right	1	46	6	right	385	1	1	1
cipora_2009_008	21	F	start_even_right	1	47	3	left	380	1	1	1
cipora_2009_008	21	F	start_even_right	1	48	7	left	616	1	1	1
cipora_2009_008	21	F	start_even_right	1	49	1	left	465	1	1	1
cipora_2009_008	21	F	start_even_right	1	50	6	right	468	1	1	1
cipora_2009_008	21	F	start_even_right	1	51	2	right	434	0	0	0
cipora_2009_008	21	F	start_even_right	1	52	4	right	556	1	1	1
cipora_2009_008	21	F	start_even_right	1	53	2	right	550	1	1	1
cipora_2009_008	21	F	start_even_right	1	54	6	right	410	1	1	1
cipora_2009_008	21	F	start_even_right	1	55	4	right	394	1	1	1
cipora_2009_008	21	F	start_even_right	1	56	9	left	570	1	1	1
cipora_2009_008	21	F	start_even_right	1	57	4	right	460	1	1	1
cipora_2009_008	21	F	start_even_right	1	58	7	left	394	1	1	1
cipora_2009_008	21	F	start_even_right	1	59	7	left	408	1	1	1
cipora_2009_008	21	F	start_even_right	1	60	8	right	391	1	1	1
cipora_2009_008	21	F	start_even_right	1	61	9	left	498	1	1	1
cipora_2009_008	21	F	start_even_right	1	62	1	left	427	1	1	1
cipora_2009_008	21	F	start_even_right	1	63	7	left	386	1	1	1
cipora_2009_008	21	F	start_even_right	1	64	7	left	311	1	1	1
cipora_2009_008	21	F	start_even_right	1	65	8	right	399	1	1	1
cipora_2009_008	21	F	start_even_right	1	66	9	left	638	1	1	1
cipora_2009_008	21	F	start_even_right	1	67	3	left	473	1	1	1
cipora_2009_008	21	F	start_even_right	1	68	2	right	619	1	1	1
cipora_2009_008	21	F	start_even_right	1	69	6	right	644	1	1	1
cipora_2009_008	21	F	start_even_right	1	70	2	right	690	1	1	0
cipora_2009_008	21	F	start_even_right	1	71	6	right	383	1	1	1
cipora_2009_008	21	F	start_even_right	1	72	4	right	382	1	1	1
cipora_2009_008	21	F	start_even_right	1	73	4	right	333	1	1	1
cipora_2009_008	21	F	start_even_right	1	74	8	right	339	1	1	1
cipora_2009_008	21	F	start_even_right	1	75	3	left	459	1	1	1
cipora_2009_008	21	F	start_even_right	1	76	9	left	341	0	0	0
cipora_2009_008	21	F	start_even_right	1	77	8	right	462	1	1	1
cipora_2009_008	21	F	start_even_right	1	78	2	right	457	0	0	0
cipora_2009_008	21	F	start_even_right	1	79	2	right	468	1	1	1
cipora_2009_008	21	F	start_even_right	1	80	3	left	427	1	1	1
cipora_2009_008	21	F	start_even_right	1	81	4	right	446	1	1	1
cipora_2009_008	21	F	start_even_right	1	82	4	right	367	1	1	1
cipora_2009_008	21	F	start_even_right	1	83	7	left	501	1	1	1
cipora_2009_008	21	F	start_even_right	1	84	4	right	580	1	1	1
cipora_2009_008	21	F	start_even_right	1	85	8	right	405	1	1	1
cipora_2009_008	21	F	start_even_right	1	86	8	right	361	1	1	1
cipora_2009_008	21	F	start_even_right	1	87	2	right	488	1	1	1
cipora_2009_008	21	F	start_even_right	1	88	9	left	493	1	1	1
cipora_2009_008	21	F	start_even_right	1	89	7	left	512	1	1	1
cipora_2009_008	21	F	start_even_right	1	90	3	left	336	1	1	1
cipora_2009_008	21	F	start_even_right	1	91	3	left	350	1	1	1
cipora_2009_008	21	F	start_even_right	1	92	8	right	374	1	1	1
cipora_2009_008	21	F	start_even_right	1	93	1	left	424	1	1	1
cipora_2009_008	21	F	start_even_right	1	94	2	right	507	1	1	1
cipora_2009_008	21	F	start_even_right	1	95	9	left	477	0	0	0
cipora_2009_008	21	F	start_even_right	1	96	7	left	310	1	1	1
cipora_2009_008	21	F	start_even_right	2	97	2	left	624	1	1	1
cipora_2009_008	21	F	start_even_right	2	98	7	right	339	1	1	1
cipora_2009_008	21	F	start_even_right	2	99	1	right	320	1	1	1
cipora_2009_008	21	F	start_even_right	2	100	4	left	412	1	1	1
cipora_2009_008	21	F	start_even_right	2	101	8	left	416	1	1	1
cipora_2009_008	21	F	start_even_right	2	102	1	right	359	1	1	1
cipora_2009_008	21	F	start_even_right	2	103	3	right	600	1	1	1
cipora_2009_008	21	F	start_even_right	2	104	1	right	498	1	1	1
cipora_2009_008	21	F	start_even_right	2	105	7	right	418	1	1	1
cipora_2009_008	21	F	start_even_right	2	106	8	left	440	1	1	1
cipora_2009_008	21	F	start_even_right	2	107	4	left	435	1	1	1
cipora_2009_008	21	F	start_even_right	2	108	3	right	421	1	1	1
cipora_2009_008	21	F	start_even_right	2	109	9	right	1070	0	0	0
cipora_2009_008	21	F	start_even_right	2	110	7	right	471	1	1	1
cipora_2009_008	21	F	start_even_right	2	111	1	right	699	1	1	0
cipora_2009_008	21	F	start_even_right	2	112	2	left	418	1	1	1
cipora_2009_008	21	F	start_even_right	2	113	3	right	528	1	1	1
cipora_2009_008	21	F	start_even_right	2	114	4	left	553	1	1	1
cipora_2009_008	21	F	start_even_right	2	115	9	right	575	1	1	1
cipora_2009_008	21	F	start_even_right	2	116	9	right	399	1	1	1
cipora_2009_008	21	F	start_even_right	2	117	4	left	570	1	1	1
cipora_2009_008	21	F	start_even_right	2	118	3	right	463	1	1	1
cipora_2009_008	21	F	start_even_right	2	119	6	left	438	1	1	1
cipora_2009_008	21	F	start_even_right	2	120	6	left	344	1	1	1
cipora_2009_008	21	F	start_even_right	2	121	8	left	416	1	1	1
cipora_2009_008	21	F	start_even_right	2	122	4	left	451	1	1	1
cipora_2009_008	21	F	start_even_right	2	123	3	right	448	1	1	1
cipora_2009_008	21	F	start_even_right	2	124	3	right	721	0	0	0
cipora_2009_008	21	F	start_even_right	2	125	9	right	633	1	1	1
cipora_2009_008	21	F	start_even_right	2	126	7	right	325	1	1	1
cipora_2009_008	21	F	start_even_right	2	127	6	left	482	1	1	1
cipora_2009_008	21	F	start_even_right	2	128	2	left	432	1	1	1
cipora_2009_008	21	F	start_even_right	2	129	1	right	375	1	1	1
cipora_2009_008	21	F	start_even_right	2	130	7	right	474	1	1	1
cipora_2009_008	21	F	start_even_right	2	131	2	left	484	1	1	1
cipora_2009_008	21	F	start_even_right	2	132	7	right	388	1	1	1
cipora_2009_008	21	F	start_even_right	2	133	2	left	606	1	1	1
cipora_2009_008	21	F	start_even_right	2	134	2	left	415	1	1	1
cipora_2009_008	21	F	start_even_right	2	135	8	left	345	1	1	1
cipora_2009_008	21	F	start_even_right	2	136	3	right	419	1	1	1
cipora_2009_008	21	F	start_even_right	2	137	2	left	487	1	1	1
cipora_2009_008	21	F	start_even_right	2	138	8	left	768	1	1	0
cipora_2009_008	21	F	start_even_right	2	139	4	left	476	1	1	1
cipora_2009_008	21	F	start_even_right	2	140	6	left	416	1	1	1
cipora_2009_008	21	F	start_even_right	2	141	3	right	490	1	1	1
cipora_2009_008	21	F	start_even_right	2	142	6	left	382	1	1	1
cipora_2009_008	21	F	start_even_right	2	143	6	left	397	1	1	1
cipora_2009_008	21	F	start_even_right	2	144	2	left	613	1	1	1
cipora_2009_008	21	F	start_even_right	2	145	7	right	532	1	1	1
cipora_2009_008	21	F	start_even_right	2	146	4	left	452	1	1	1
cipora_2009_008	21	F	start_even_right	2	147	7	right	493	1	1	1
cipora_2009_008	21	F	start_even_right	2	148	1	right	452	1	1	1
cipora_2009_008	21	F	start_even_right	2	149	3	right	440	1	1	1
cipora_2009_008	21	F	start_even_right	2	150	1	right	487	1	1	1
cipora_2009_008	21	F	start_even_right	2	151	4	left	366	1	1	1
cipora_2009_008	21	F	start_even_right	2	152	9	right	504	1	1	1
cipora_2009_008	21	F	start_even_right	2	153	7	right	415	1	1	1
cipora_2009_008	21	F	start_even_right	2	154	6	left	482	1	1	1
cipora_2009_008	21	F	start_even_right	2	155	1	right	657	1	1	1
cipora_2009_008	21	F	start_even_right	2	156	1	right	520	1	1	1
cipora_2009_008	21	F	start_even_right	2	157	8	left	443	1	1	1
cipora_2009_008	21	F	start_even_right	2	158	6	left	504	1	1	1
cipora_2009_008	21	F	start_even_right	2	159	9	right	463	1	1	1
cipora_2009_008	21	F	start_even_right	2	160	2	left	567	1	1	1
cipora_2009_008	21	F	start_even_right	2	161	7	right	322	1	1	1
cipora_2009_008	21	F	start_even_right	2	162	2	left	369	1	1	1
cipora_2009_008	21	F	start_even_right	2	163	7	right	573	1	1	1
cipora_2009_008	21	F	start_even_right	2	164	4	left	473	1	1	1
cipora_2009_008	21	F	start_even_right	2	165	8	left	369	1	1	1
cipora_2009_008	21	F	start_even_right	2	166	6	left	386	1	1	1
cipora_2009_008	21	F	start_even_right	2	167	4	left	347	1	1	1
cipora_2009_008	21	F	start_even_right	2	168	4	left	306	1	1	1
cipora_2009_008	21	F	start_even_right	2	169	7	right	364	1	1	1
cipora_2009_008	21	F	start_even_right	2	170	9	right	363	1	1	1
cipora_2009_008	21	F	start_even_right	2	171	2	left	399	1	1	1
cipora_2009_008	21	F	start_even_right	2	172	3	right	405	1	1	1
cipora_2009_008	21	F	start_even_right	2	173	9	right	507	1	1	1
cipora_2009_008	21	F	start_even_right	2	174	9	right	409	1	1	1
cipora_2009_008	21	F	start_even_right	2	175	8	left	616	1	1	1
cipora_2009_008	21	F	start_even_right	2	176	1	right	325	1	1	1
cipora_2009_008	21	F	start_even_right	2	177	9	right	510	1	1	1
cipora_2009_008	21	F	start_even_right	2	178	8	left	514	1	1	1
cipora_2009_008	21	F	start_even_right	2	179	6	left	554	0	0	0
cipora_2009_008	21	F	start_even_right	2	180	9	right	421	1	1	1
cipora_2009_008	21	F	start_even_right	2	181	4	left	426	1	1	1
cipora_2009_008	21	F	start_even_right	2	182	8	left	355	1	1	1
cipora_2009_008	21	F	start_even_right	2	183	8	left	487	1	1	1
cipora_2009_008	21	F	start_even_right	2	184	8	left	344	1	1	1
cipora_2009_008	21	F	start_even_right	2	185	1	right	438	1	1	1
cipora_2009_008	21	F	start_even_right	2	186	6	left	476	1	1	1
cipora_2009_008	21	F	start_even_right	2	187	6	left	399	1	1	1
cipora_2009_008	21	F	start_even_right	2	188	9	right	416	0	0	0
cipora_2009_008	21	F	start_even_right	2	189	2	left	396	1	1	1
cipora_2009_008	21	F	start_even_right	2	190	3	right	487	1	1	1
cipora_2009_008	21	F	start_even_right	2	191	3	right	446	1	1	1
cipora_2009_008	21	F	start_even_right	2	192	1	right	405	1	1	1
cipora_2009_009	25	F	start_even_right	1	1	2	right	388	1	1	1
cipora_2009_009	25	F	start_even_right	1	2	6	right	557	1	1	1
cipora_2009_009	25	F	start_even_right	1	3	2	right	319	0	0	0
cipora_2009_009	25	F	start_even_right	1	4	1	left	526	1	1	1
cipora_2009_009	25	F	start_even_right	1	5	7	left	452	0	0	0
cipora_2009_009	25	F	start_even_right	1	6	6	right	550	1	1	1
cipora_2009_009	25	F	start_even_right	1	7	6	right	493	1	1	1
cipora_2009_009	25	F	start_even_right	1	8	8	right	512	1	1	1
cipora_2009_009	25	F	start_even_right	1	9	2	right	823	1	1	0
cipora_2009_009	25	F	start_even_right	1	10	6	right	490	1	1	1
cipora_2009_009	25	F	start_even_right	1	11	8	right	474	1	1	1
cipora_2009_009	25	F	start_even_right	1	12	8	right	441	1	1	1
cipora_2009_009	25	F	start_even_right	1	13	7	left	548	1	1	1
cipora_2009_009	25	F	start_even_right	1	14	9	left	557	1	1	1
cipora_2009_009	25	F	start_even_right	1	15	9	left	521	1	1	1
cipora_2009_009	25	F	start_even_right	1	16	2	right	512	1	1	1
cipora_2009_009	25	F	start_even_right	1	17	1	left	565	1	1	1
cipora_2009_009	25	F	start_even_right	1	18	4	right	611	1	1	1
cipora_2009_009	25	F	start_even_right	1	19	4	right	458	1	1	1
cipora_2009_009	25	F	start_even_right	1	20	3	left	518	1	1	1
cipora_2009_009	25	F	start_even_right	1	21	8	right	446	1	1	1
cipora_2009_009	25	F	start_even_right	1	22	4	right	482	1	1	1
cipora_2009_009	25	F	start_even_right	1	23	4	right	421	1	1	1
cipora_2009_009	25	F	start_even_right	1	24	9	left	515	1	1	1
cipora_2009_009	25	F	start_even_right	1	25	1	left	540	0	0	0
cipora_2009_009	25	F	start_even_right	1	26	3	left	471	1	1	1
cipora_2009_009	25	F	start_even_right	1	27	3	left	419	1	1	1
cipora_2009_009	25	F	start_even_right	1	28	2	right	672	1	1	1
cipora_2009_009	25	F	start_even_right	1	29	1	left	507	1	1	1
cipora_2009_009	25	F	start_even_right	1	30	6	right	507	1	1	1
cipora_2009_009	25	F	start_even_right	1	31	3	left	518	1	1	1
cipora_2009_009	25	F	start_even_right	1	32	8	right	531	1	1	1
cipora_2009_009	25	F	start_even_right	1	33	3	left	405	1	1	1
cipora_2009_009	25	F	start_even_right	1	34	3	left	413	1	1	1
cipora_2009_009	25	F	start_even_right	1	35	1	left	482	1	1	1
cipora_2009_009	25	F	start_even_right	1	36	8	right	509	1	1	1
cipora_2009_009	25	F	start_even_right	1	37	7	left	551	1	1	1
cipora_2009_009	25	F	start_even_right	1	38	1	left	559	1	1	1
cipora_2009_009	25	F	start_even_right	1	39	1	left	518	1	1	1
cipora_2009_009	25	F	start_even_right	1	40	7	left	507	1	1	1
cipora_2009_009	25	F	start_even_right	1	41	3	left	452	1	1	1
cipora_2009_009	25	F	start_even_right	1	42	2	right	592	1	1	1
cipora_2009_009	25	F	start_even_right	1	43	6	right	669	1	1	1
cipora_2009_009	25	F	start_even_right	1	44	7	left	518	1	1	1
cipora_2009_009	25	F	start_even_right	1	45	9	left	471	1	1	1
cipora_2009_009	25	F	start_even_right	1	46	8	right	575	1	1	1
cipora_2009_009	25	F	start_even_right	1	47	1	left	595	1	1	1
cipora_2009_009	25	F	start_even_right	1	48	6	right	422	1	1	1
cipora_2009_009	25	F	start_even_right	1	49	3	left	479	1	1	1
cipora_2009_009	25	F	start_even_right	1	50	9	left	595	1	1	1
cipora_2009_009	25	F	start_even_right	1	51	4	right	556	1	1	1
cipora_2009_009	25	F	start_even_right	1	52	2	right	518	0	0	0
cipora_2009_009	25	F	start_even_right	1	53	4	right	504	1	1	1
cipora_2009_009	25	F	start_even_right	1	54	6	right	559	1	1	1
cipora_2009_009	25	F	start_even_right	1	55	4	right	590	1	1	1
cipora_2009_009	25	F	start_even_right	1	56	7	left	597	1	1	1
cipora_2009_009	25	F	start_even_right	1	57	7	left	441	1	1	1
cipora_2009_009	25	F	start_even_right	1	58	2	right	532	1	1	1
cipora_2009_009	25	F	start_even_right	1	59	7	left	908	1	1	0
cipora_2009_009	25	F	start_even_right	1	60	7	left	499	1	1	1
cipora_2009_009	25	F	start_even_right	1	61	9	left	479	0	0	0
cipora_2009_009	25	F	start_even_right	1	62	1	left	503	1	1	1
cipora_2009_009	25	F	start_even_right	1	63	6	right	612	1	1	1
cipora_2009_009	25	F	start_even_right	1	64	3	left	689	1	1	1
cipora_2009_009	25	F	start_even_right	1	65	6	right	458	1	1	1
cipora_2009_009	25	F	start_even_right	1	66	4	right	571	1	1	1
cipora_2009_009	25	F	start_even_right	1	67	4	right	531	1	1	1
cipora_2009_009	25	F	start_even_right	1	68	9	left	529	1	1	1
cipora_2009_009	25	F	start_even_right	1	69	9	left	507	1	1	1
cipora_2009_009	25	F	start_even_right	1	70	1	left	452	1	1	1
cipora_2009_009	25	F	start_even_right	1	71	6	right	619	1	1	1
cipora_2009_009	25	F	start_even_right	1	72	4	right	634	1	1	1
cipora_2009_009	25	F	start_even_right	1	73	1	left	491	1	1	1
cipora_2009_009	25	F	start_even_right	1	74	3	left	707	1	1	1
cipora_2009_009	25	F	start_even_right	1	75	7	left	609	1	1	1
cipora_2009_009	25	F	start_even_right	1	76	1	left	537	1	1	1
cipora_2009_009	25	F	start_even_right	1	77	8	right	441	1	1	1
cipora_2009_009	25	F	start_even_right	1	78	9	left	639	1	1	1
cipora_2009_009	25	F	start_even_right	1	79	4	right	476	1	1	1
cipora_2009_009	25	F	start_even_right	1	80	4	right	400	1	1	1
cipora_2009_009	25	F	start_even_right	1	81	8	right	433	1	1	1
cipora_2009_009	25	F	start_even_right	1	82	6	right	430	1	1	1
cipora_2009_009	25	F	start_even_right	1	83	7	left	485	1	1	1
cipora_2009_009	25	F	start_even_right	1	84	2	right	527	1	1	1
cipora_2009_009	25	F	start_even_right	1	85	7	left	502	1	1	1
cipora_2009_009	25	F	start_even_right	1	86	8	right	455	1	1	1
cipora_2009_009	25	F	start_even_right	1	87	9	left	727	1	1	1
cipora_2009_009	25	F	start_even_right	1	88	3	left	529	1	1	1
cipora_2009_009	25	F	start_even_right	1	89	2	right	479	1	1	1
cipora_2009_009	25	F	start_even_right	1	90	3	left	403	1	1	1
cipora_2009_009	25	F	start_even_right	1	91	2	right	425	1	1	1
cipora_2009_009	25	F	start_even_right	1	92	2	right	451	1	1	1
cipora_2009_009	25	F	start_even_right	1	93	9	left	617	1	1	1
cipora_2009_009	25	F	start_even_right	1	94	8	right	438	1	1	1
cipora_2009_009	25	F	start_even_right	1	95	9	left	566	1	1	1
cipora_2009_009	25	F	start_even_right	1	96	8	right	463	1	1	1
cipora_2009_009	25	F	start_even_right	2	97	1	right	502	1	1	1
cipora_2009_009	25	F	start_even_right	2	98	9	right	452	1	1	1
cipora_2009_009	25	F	start_even_right	2	99	9	right	438	1	1	1
cipora_2009_009	25	F	start_even_right	2	100	1	right	405	1	1	1
cipora_2009_009	25	F	start_even_right	2	101	2	left	614	1	1	1
cipora_2009_009	25	F	start_even_right	2	102	7	right	512	1	1	1
cipora_2009_009	25	F	start_even_right	2	103	6	left	562	1	1	1
cipora_2009_009	25	F	start_even_right	2	104	6	left	488	1	1	1
cipora_2009_009	25	F	start_even_right	2	105	4	left	515	1	1	1
cipora_2009_009	25	F	start_even_right	2	106	2	left	408	1	1	1
cipora_2009_009	25	F	start_even_right	2	107	6	left	430	1	1	1
cipora_2009_009	25	F	start_even_right	2	108	6	left	384	1	1	1
cipora_2009_009	25	F	start_even_right	2	109	7	right	499	1	1	1
cipora_2009_009	25	F	start_even_right	2	110	8	left	561	1	1	1
cipora_2009_009	25	F	start_even_right	2	111	9	right	449	1	1	1
cipora_2009_009	25	F	start_even_right	2	112	8	left	542	1	1	1
cipora_2009_009	25	F	start_even_right	2	113	4	left	554	1	1	1
cipora_2009_009	25	F	start_even_right	2	114	8	left	488	1	1	1
cipora_2009_009	25	F	start_even_right	2	115	7	right	509	1	1	1
cipora_2009_009	25	F	start_even_right	2	116	8	left	658	1	1	1
cipora_2009_009	25	F	start_even_right	2	117	3	right	471	1	1	1
cipora_2009_009	25	F	start_even_right	2	118	2	left	457	1	1	1
cipora_2009_009	25	F	start_even_right	2	119	9	right	534	1	1	1
cipora_2009_009	25	F	start_even_right	2	120	3	right	719	1	1	1
cipora_2009_009	25	F	start_even_right	2	121	4	left	485	1	1	1
cipora_2009_009	25	F	start_even_right	2	122	6	left	878	1	1	0
cipora_2009_009	25	F	start_even_right	2	123	6	left	488	1	1	1
cipora_2009_009	25	F	start_even_right	2	124	7	right	532	1	1	1
cipora_2009_009	25	F	start_even_right	2	125	9	right	578	1	1	1
cipora_2009_009	25	F	start_even_right	2	126	6	left	1024	1	1	0
cipora_2009_009	25	F	start_even_right	2	127	3	right	540	1	1	1
cipora_2009_009	25	F	start_even_right	2	128	4	left	510	1	1	1
cipora_2009_009	25	F	start_even_right	2	129	9	right	721	1	1	1
cipora_2009_009	25	F	start_even_right	2	130	3	right	525	1	1	1
cipora_2009_009	25	F	start_even_right	2	131	2	left	537	1	1	1
cipora_2009_009	25	F	start_even_right	2	132	3	right	479	1	1	1
cipora_2009_009	25	F	start_even_right	2	133	6	left	793	1	1	0
cipora_2009_009	25	F	start_even_right	2	134	1	right	546	1	1	1
cipora_2009_009	25	F	start_even_right	2	135	2	left	457	1	1	1
cipora_2009_009	25	F	start_even_right	2	136	2	left	460	1	1	1
cipora_2009_009	25	F	start_even_right	2	137	1	right	504	0	0	0
cipora_2009_009	25	F	start_even_right	2	138	1	right	743	1	1	1
cipora_2009_009	25	F	start_even_right	2	139	9	right	485	1	1	1
cipora_2009_009	25	F	start_even_right	2	140	1	right	429	1	1	1
cipora_2009_009	25	F	start_even_right	2	141	7	right	471	1	1	1
cipora_2009_009	25	F	start_even_right	2	142	3	right	509	1	1	1
cipora_2009_009	25	F	start_even_right	2	143	2	left	385	1	1	1
cipora_2009_009	25	F	start_even_right	2	144	8	left	554	1	1	1
cipora_2009_009	25	F	start_even_right	2	145	7	right	498	1	1	1
cipora_2009_009	25	F	start_even_right	2	146	4	left	543	1	1	1
cipora_2009_009	25	F	start_even_right	2	147	6	left	517	0	0	0
cipora_2009_009	25	F	start_even_right	2	148	9	right	705	1	1	1
cipora_2009_009	25	F	start_even_right	2	149	8	left	705	1	1	1
cipora_2009_009	25	F	start_even_right	2	150	3	right	859	1	1	0
cipora_2009_009	25	F	start_even_right	2	151	7	right	488	1	1	1
cipora_2009_009	25	F	start_even_right	2	152	1	right	438	1	1	1
cipora_2009_009	25	F	start_even_right	2	153	7	right	403	1	1	1
cipora_2009_009	25	F	start_even_right	2	154	7	right	399	1	1	1
cipora_2009_009	25	F	start_even_right	2	155	4	left	424	1	1	1
cipora_2009_009	25	F	start_even_right	2	156	8	left	696	1	1	1
cipora_2009_009	25	F	start_even_right	2	157	8	left	394	1	1	1
cipora_2009_009	25	F	start_even_right	2	158	6	left	466	1	1	1
cipora_2009_009	25	F	start_even_right	2	159	4	left	386	1	1	1
cipora_2009_009	25	F	start_even_right	2	160	3	right	600	1	1	1
cipora_2009_009	25	F	start_even_right	2	161	4	left	460	1	1	1
cipora_2009_009	25	F	start_even_right	2	162	1	right	553	1	1	1
cipora_2009_009	25	F	start_even_right	2	163	7	right	559	1	1	1
cipora_2009_009	25	F	start_even_right	2	164	1	right	542	1	1	1
cipora_2009_009	25	F	start_even_right	2	165	6	left	523	1	1	1
cipora_2009_009	25	F	start_even_right	2	166	7	right	491	1	1	1
cipora_2009_009	25	F	start_even_right	2	167	2	left	554	1	1	1
cipora_2009_009	25	F	start_even_right	2	168	4	left	448	1	1	1
cipora_2009_009	25	F	start_even_right	2	169	3	right	876	0	0	0
cipora_2009_009	25	F	start_even_right	2	170	7	right	824	1	1	0
cipora_2009_009	25	F	start_even_right	2	171	9	right	799	1	1	0
cipora_2009_009	25	F	start_even_right	2	172	4	left	495	1	1	1
cipora_2009_009	25	F	start_even_right	2	173	9	right	516	1	1	1
cipora_2009_009	25	F	start_even_right	2	174	4	left	458	1	1	1
cipora_2009_009	25	F	start_even_right	2	175	4	left	444	1	1	1
cipora_2009_009	25	F	start_even_right	2	176	2	left	513	1	1	1
cipora_2009_009	25	F	start_even_right	2	177	9	right	540	1	1	1
cipora_2009_009	25	F	start_even_right	2	178	3	right	551	1	1	1
cipora_2009_009	25	F	start_even_right	2	179	3	right	397	1	1	1
cipora_2009_009	25	F	start_even_right	2	180	1	right	620	1	1	1
cipora_2009_009	25	F	start_even_right	2	181	6	left	580	1	1	1
cipora_2009_009	25	F	start_even_right	2	182	9	right	631	1	1	1
cipora_2009_009	25	F	start_even_right	2	183	3	right	631	1	1	1
cipora_2009_009	25	F	start_even_right	2	184	8	left	419	1	1	1
cipora_2009_009	25	F	start_even_right	2	185	8	left	457	1	1	1
cipora_2009_009	25	F	start_even_right	2	186	8	left	696	1	1	1
cipora_2009_009	25	F	start_even_right	2	187	1	right	469	1	1	1
cipora_2009_009	25	F	start_even_right	2	188	2	left	575	1	1	1
cipora_2009_009	25	F	start_even_right	2	189	1	right	482	1	1	1
cipora_2009_009	25	F	start_even_right	2	190	2	left	465	1	1	1
cipora_2009_009	25	F	start_even_right	2	191	2	left	339	1	1	1
cipora_2009_009	25	F	start_even_right	2	192	8	left	691	1	1	1
cipora_2009_010	21	F	start_even_right	1	1	9	left	504	1	1	1
cipora_2009_010	21	F	start_even_right	1	2	8	right	658	1	1	1
cipora_2009_010	21	F	start_even_right	1	3	8	right	591	1	1	1
cipora_2009_010	21	F	start_even_right	1	4	4	right	642	1	1	1
cipora_2009_010	21	F	start_even_right	1	5	2	right	533	1	1	1
cipora_2009_010	21	F	start_even_right	1	6	9	left	564	1	1	1
cipora_2009_010	21	F	start_even_right	1	7	8	right	450	1	1	1
cipora_2009_010	21	F	start_even_right	1	8	2	right	420	1	1	1
cipora_2009_010	21	F	start_even_right	1	9	4	right	510	0	0	0
cipora_2009_010	21	F	start_even_right	1	10	4	right	1213	1	1	0
cipora_2009_010	21	F	start_even_right	1	11	4	right	491	1	1	1
cipora_2009_010	21	F	start_even_right	1	12	4	right	452	1	1	1
cipora_2009_010	21	F	start_even_right	1	13	8	right	629	1	1	1
cipora_2009_010	21	F	start_even_right	1	14	2	right	1110	1	1	0
cipora_2009_010	21	F	start_even_right	1	15	7	left	618	1	1	1
cipora_2009_010	21	F	start_even_right	1	16	6	right	661	1	1	1
cipora_2009_010	21	F	start_even_right	1	17	7	left	375	0	0	0
cipora_2009_010	21	F	start_even_right	1	18	4	right	683	1	1	1
cipora_2009_010	21	F	start_even_right	1	19	4	right	413	1	1	1
cipora_2009_010	21	F	start_even_right	1	20	6	right	455	1	1	1
cipora_2009_010	21	F	start_even_right	1	21	7	left	580	1	1	1
cipora_2009_010	21	F	start_even_right	1	22	1	left	593	1	1	1
cipora_2009_010	21	F	start_even_right	1	23	6	right	556	1	1	1
cipora_2009_010	21	F	start_even_right	1	24	3	left	837	1	1	1
cipora_2009_010	21	F	start_even_right	1	25	4	right	539	1	1	1
cipora_2009_010	21	F	start_even_right	1	26	9	left	488	1	1	1
cipora_2009_010	21	F	start_even_right	1	27	9	left	550	1	1	1
cipora_2009_010	21	F	start_even_right	1	28	1	left	383	1	1	1
cipora_2009_010	21	F	start_even_right	1	29	8	right	380	1	1	1
cipora_2009_010	21	F	start_even_right	1	30	1	left	463	1	1	1
cipora_2009_010	21	F	start_even_right	1	31	3	left	642	1	1	1
cipora_2009_010	21	F	start_even_right	1	32	2	right	748	1	1	1
cipora_2009_010	21	F	start_even_right	1	33	1	left	831	1	1	1
cipora_2009_010	21	F	start_even_right	1	34	4	right	566	1	1	1
cipora_2009_010	21	F	start_even_right	1	35	4	right	347	1	1	1
cipora_2009_010	21	F	start_even_right	1	36	9	left	610	1	1	1
cipora_2009_010	21	F	start_even_right	1	37	7	left	694	1	1	1
cipora_2009_010	21	F	start_even_right	1	38	1	left	561	1	1	1
cipora_2009_010	21	F	start_even_right	1	39	2	right	564	1	1	1
cipora_2009_010	21	F	start_even_right	1	40	4	right	440	0	0	0
cipora_2009_010	21	F	start_even_right	1	41	8	right	580	1	1	1
cipora_2009_010	21	F	start_even_right	1	42	4	right	447	0	0	0
cipora_2009_010	21	F	start_even_right	1	43	2	right	1186	1	1	0
cipora_2009_010	21	F	start_even_right	1	44	9	left	726	1	1	1
cipora_2009_010	21	F	start_even_right	1	45	7	left	796	1	1	1
cipora_2009_010	21	F	start_even_right	1	46	8	right	556	1	1	1
cipora_2009_010	21	F	start_even_right	1	47	3	left	715	1	1	1
cipora_2009_010	21	F	start_even_right	1	48	1	left	420	1	1	1
cipora_2009_010	21	F	start_even_right	1	49	8	right	490	1	1	1
cipora_2009_010	21	F	start_even_right	1	50	9	left	632	1	1	1
cipora_2009_010	21	F	start_even_right	1	51	2	right	431	0	0	0
cipora_2009_010	21	F	start_even_right	1	52	9	left	780	1	1	1
cipora_2009_010	21	F	start_even_right	1	53	2	right	477	1	1	1
cipora_2009_010	21	F	start_even_right	1	54	7	left	458	1	1	1
cipora_2009_010	21	F	start_even_right	1	55	6	right	642	1	1	1
cipora_2009_010	21	F	start_even_right	1	56	6	right	705	1	1	1
cipora_2009_010	21	F	start_even_right	1	57	3	left	477	1	1	1
cipora_2009_010	21	F	start_even_right	1	58	7	left	693	1	1	1
cipora_2009_010	21	F	start_even_right	1	59	7	left	407	1	1	1
cipora_2009_010	21	F	start_even_right	1	60	7	left	407	1	1	1
cipora_2009_010	21	F	start_even_right	1	61	9	left	653	1	1	1
cipora_2009_010	21	F	start_even_right	1	62	1	left	524	1	1	1
cipora_2009_010	21	F	start_even_right	1	63	6	right	775	1	1	1
cipora_2009_010	21	F	start_even_right	1	64	3	left	1135	1	1	0
cipora_2009_010	21	F	start_even_right	1	65	6	right	586	1	1	1
cipora_2009_010	21	F	start_even_right	1	66	1	left	512	1	1	1
cipora_2009_010	21	F	start_even_right	1	67	1	left	437	1	1	1
cipora_2009_010	21	F	start_even_right	1	68	3	left	577	1	1	1
cipora_2009_010	21	F	start_even_right	1	69	6	right	602	1	1	1
cipora_2009_010	21	F	start_even_right	1	70	9	left	607	1	1	1
cipora_2009_010	21	F	start_even_right	1	71	3	left	834	1	1	1
cipora_2009_010	21	F	start_even_right	1	72	3	left	431	1	1	1
cipora_2009_010	21	F	start_even_right	1	73	9	left	526	1	1	1
cipora_2009_010	21	F	start_even_right	1	74	8	right	594	1	1	1
cipora_2009_010	21	F	start_even_right	1	75	3	left	507	1	1	1
cipora_2009_010	21	F	start_even_right	1	76	6	right	962	1	1	1
