part.code	version	block	trial.no	number	resp.side	rt	training.out	accuracy	correct.experimental	filter.correct.exp.antic	filter.seq
Part_01	1	8	11	8	right	715.24	0	1	0	0	0
Part_01	1	8	11	3	left	771.28	0	1	0	0	0
Part_01	1	8	11	9	left	673.4	0	1	0	0	0
Part_01	1	8	11	4	right	490.77	0	1	0	0	0
Part_01	1	8	11	1	left	601.42	0	1	0	0	0
Part_01	1	8	11	6	right	573.42	0	1	0	0	0
Part_01	1	8	11	9	left	484.23	0	1	0	0	0
Part_01	1	8	11	1	left	489.97	0	1	0	0	0
Part_01	1	8	11	4	right	583.9	0	1	0	0	0
Part_01	1	8	11	3	left	484.06	0	1	0	0	0
Part_01	1	8	11	2	right	586.85	0	1	0	0	0
Part_01	1	8	11	7	left	537.72	0	1	0	0	0
Part_01	1	8	11	2	right	499.82	0	1	0	0	0
Part_01	1	8	11	6	right	562.93	0	1	0	0	0
Part_01	1	8	11	7	left	406.12	0	1	0	0	0
Part_01	1	8	11	8	right	592.66	0	1	0	0	0
Part_01	1	1	1	1	left	733.47	1	1	1	1	1
Part_01	1	1	2	4	right	721.6	1	1	1	1	1
Part_01	1	1	3	9	left	637.9	1	1	1	1	1
Part_01	1	1	4	2	right	504.06	1	1	1	1	1
Part_01	1	1	5	2	right	425.58	1	1	1	1	1
Part_01	1	1	6	2	right	803.35	1	1	1	1	1
Part_01	1	1	7	3	left	621.94	1	1	1	1	1
Part_01	1	1	8	7	left	699.34	1	1	1	1	1
Part_01	1	1	9	7	left	444.13	1	1	1	1	1
Part_01	1	1	10	6	right	509.57	1	1	1	1	1
Part_01	1	1	11	9	left	651.19	1	1	1	1	1
Part_01	1	1	12	8	right	558.7	1	1	1	1	1
Part_01	1	1	13	7	left	526.48	1	1	1	1	1
Part_01	1	1	14	3	left	701.12	1	1	1	1	1
Part_01	1	1	15	6	right	730.19	1	1	1	1	1
Part_01	1	1	16	9	left	736.07	1	1	1	1	1
Part_01	1	1	17	4	right	436.26	1	1	1	1	1
Part_01	1	1	18	8	right	643.23	1	1	1	1	1
Part_01	1	1	19	4	right	717.82	1	1	1	1	1
Part_01	1	1	20	8	right	703.36	1	1	1	1	1
Part_01	1	1	21	3	left	585.66	1	1	1	1	1
Part_01	1	1	22	8	right	549.97	1	1	1	1	1
Part_01	1	1	23	8	right	900.01	1	1	1	1	0
Part_01	1	1	24	2	right	459.37	1	1	1	1	1
Part_01	1	1	25	1	left	596.64	1	1	1	1	1
Part_01	1	1	26	4	right	549.37	1	1	1	1	1
Part_01	1	1	27	9	left	571.82	1	1	1	1	1
Part_01	1	1	28	2	right	867.73	1	1	1	1	0
Part_01	1	1	29	6	right	699.33	1	1	1	1	1
Part_01	1	1	30	7	left	575.04	1	1	1	1	1
Part_01	1	1	31	2	right	589.6	1	1	1	1	1
Part_01	1	1	32	2	right	515.9	1	1	1	1	1
Part_01	1	1	33	4	right	658.09	1	1	1	1	1
Part_01	1	1	34	1	left	723.35	1	1	1	1	1
Part_01	1	1	35	9	left	666.97	1	1	1	1	1
Part_01	1	1	36	9	left	563.71	1	1	1	1	1
Part_01	1	1	37	7	left	635.97	1	1	1	1	1
Part_01	1	1	38	3	left	481.21	1	1	1	1	1
Part_01	1	1	39	4	right	483.65	1	1	1	1	1
Part_01	1	1	40	6	right	451.82	1	1	1	1	1
Part_01	1	1	41	2	right	520.78	1	1	1	1	1
Part_01	1	1	42	7	left	483.46	1	1	1	1	1
Part_01	1	1	43	6	right	587.93	1	1	1	1	1
Part_01	1	1	44	7	left	627.95	1	1	1	1	1
Part_01	1	1	45	9	left	-556.22	1	0	0	0	0
Part_01	1	1	46	4	right	470.58	1	1	1	1	1
Part_01	1	1	47	3	left	475.42	1	1	1	1	1
Part_01	1	1	48	3	left	626.54	1	1	1	1	1
Part_01	1	1	49	1	left	563.48	1	1	1	1	1
Part_01	1	1	50	6	right	502.38	1	1	1	1	1
Part_01	1	1	51	6	right	574.73	1	1	1	1	1
Part_01	1	1	52	8	right	487.78	1	1	1	1	1
Part_01	1	1	53	9	left	640.13	1	1	1	1	1
Part_01	1	1	54	6	right	600.06	1	1	1	1	1
Part_01	1	1	55	1	left	588.63	1	1	1	1	1
Part_01	1	1	56	1	left	577.73	1	1	1	1	1
Part_01	1	1	57	2	right	943.45	1	1	1	1	0
Part_01	1	1	58	4	right	503.25	1	1	1	1	1
Part_01	1	1	59	1	left	601.89	1	1	1	1	1
Part_01	1	1	60	3	left	843.23	1	1	1	1	1
Part_01	1	1	61	9	left	476.39	1	1	1	1	1
Part_01	1	1	62	4	right	491.76	1	1	1	1	1
Part_01	1	1	63	6	right	582.77	1	1	1	1	1
Part_01	1	1	64	2	right	512.76	1	1	1	1	1
Part_01	1	1	65	7	left	713.01	1	1	1	1	1
Part_01	1	1	66	9	left	523.68	1	1	1	1	1
Part_01	1	1	67	7	left	617.59	1	1	1	1	1
Part_01	1	1	68	3	left	577.09	1	1	1	1	1
Part_01	1	1	69	1	left	490.29	1	1	1	1	1
Part_01	1	1	70	8	right	589.05	1	1	1	1	1
Part_01	1	1	71	7	left	580.64	1	1	1	1	1
Part_01	1	1	72	1	left	771.41	1	1	1	1	1
Part_01	1	1	73	7	left	537.36	1	1	1	1	1
Part_01	1	1	74	4	right	1001.09	1	1	1	1	0
Part_01	1	1	75	6	right	651.76	1	1	1	1	1
Part_01	1	1	76	2	right	501.97	1	1	1	1	1
Part_01	1	1	77	9	left	553.11	1	1	1	1	1
Part_01	1	1	78	7	left	528.45	1	1	1	1	1
Part_01	1	1	79	7	left	520.22	1	1	1	1	1
Part_01	1	1	80	2	right	809.48	1	1	1	1	1
Part_01	1	1	81	7	left	732.34	1	1	1	1	1
Part_01	1	1	82	2	right	584.23	1	1	1	1	1
Part_01	1	1	83	2	right	493.72	1	1	1	1	1
Part_01	1	1	84	4	right	520.48	1	1	1	1	1
Part_01	1	1	85	9	left	560.23	1	1	1	1	1
Part_01	1	1	86	8	right	421.63	1	1	1	1	1
Part_01	1	1	87	1	left	532.64	1	1	1	1	1
Part_01	1	1	88	8	right	515.92	1	1	1	1	1
Part_01	1	1	89	1	left	1134.89	1	1	1	1	0
Part_01	1	1	90	2	right	624.73	1	1	1	1	1
Part_01	1	1	91	1	left	540.79	1	1	1	1	1
Part_01	1	1	92	6	right	673.4	1	1	1	1	1
Part_01	1	1	93	6	right	574.35	1	1	1	1	1
Part_01	1	1	94	8	right	450.84	1	1	1	1	1
Part_01	1	1	95	4	right	565.54	1	1	1	1	1
Part_01	1	1	96	8	right	704.5	1	1	1	1	1
Part_01	1	1	97	8	right	1080.04	1	1	1	1	0
Part_01	1	1	98	3	left	518.56	1	1	1	1	1
Part_01	1	1	99	6	right	517.83	1	1	1	1	1
Part_01	1	1	100	8	right	545.22	1	1	1	1	1
Part_01	1	1	101	9	left	738.24	1	1	1	1	1
Part_01	1	1	102	3	left	463.11	1	1	1	1	1
Part_01	1	1	103	6	right	649.56	1	1	1	1	1
Part_01	1	1	104	9	left	530.38	1	1	1	1	1
Part_01	1	1	105	2	right	485.24	1	1	1	1	1
Part_01	1	1	106	8	right	605.67	1	1	1	1	1
Part_01	1	1	107	4	right	704.44	1	1	1	1	1
Part_01	1	1	108	3	left	500.41	1	1	1	1	1
Part_01	1	1	109	4	right	760.19	1	1	1	1	1
Part_01	1	1	110	1	left	499.19	1	1	1	1	1
Part_01	1	1	111	2	right	600.39	1	1	1	1	1
Part_01	1	1	112	3	left	638.91	1	1	1	1	1
Part_01	1	1	113	3	left	593.79	1	1	1	1	1
Part_01	1	1	114	1	left	567.39	1	1	1	1	1
Part_01	1	1	115	2	right	514.76	1	1	1	1	1
Part_01	1	1	116	3	left	512.43	1	1	1	1	1
Part_01	1	1	117	1	left	533.58	1	1	1	1	1
Part_01	1	1	118	4	right	556.39	1	1	1	1	1
Part_01	1	1	119	3	left	491.95	1	1	1	1	1
Part_01	1	1	120	2	right	1005.39	1	1	1	1	0
Part_01	1	1	121	9	left	563.87	1	1	1	1	1
Part_01	1	1	122	8	right	568.99	1	1	1	1	1
Part_01	1	1	123	4	right	543.49	1	1	1	1	1
Part_01	1	1	124	9	left	552.83	1	1	1	1	1
Part_01	1	1	125	4	right	603.3	1	1	1	1	1
Part_01	1	1	126	3	left	673.44	1	1	1	1	1
Part_01	1	1	127	9	left	915.28	1	1	1	1	0
Part_01	1	1	128	6	right	878.7	1	1	1	1	0
Part_01	1	1	129	6	right	599.29	1	1	1	1	1
Part_01	1	1	130	4	right	851.46	1	1	1	1	1
Part_01	1	1	131	8	right	537.55	1	1	1	1	1
Part_01	1	1	132	6	right	610.85	1	1	1	1	1
Part_01	1	1	133	6	right	-360.36	1	0	0	0	0
Part_01	1	1	134	6	right	521.07	1	1	1	1	1
Part_01	1	1	135	3	left	513.27	1	1	1	1	1
Part_01	1	1	136	2	right	640.62	1	1	1	1	1
Part_01	1	1	137	9	left	544.49	1	1	1	1	1
Part_01	1	1	138	9	left	547.59	1	1	1	1	1
Part_01	1	1	139	6	right	591.6	1	1	1	1	1
Part_01	1	1	140	7	left	476.36	1	1	1	1	1
Part_01	1	1	141	6	right	558.73	1	1	1	1	1
Part_01	1	1	142	7	left	555.15	1	1	1	1	1
Part_01	1	1	143	2	right	635.84	1	1	1	1	1
Part_01	1	1	144	9	left	-509.19	1	0	0	0	0
Part_01	1	1	145	7	left	568.03	1	1	1	1	1
Part_01	1	1	146	8	right	490.76	1	1	1	1	1
Part_01	1	1	147	8	right	561.44	1	1	1	1	1
Part_01	1	1	148	8	right	600.74	1	1	1	1	1
Part_01	1	1	149	6	right	586.4	1	1	1	1	1
Part_01	1	1	150	9	left	614.57	1	1	1	1	1
Part_01	1	1	151	1	left	488.88	1	1	1	1	1
Part_01	1	1	152	1	left	555.77	1	1	1	1	1
Part_01	1	1	153	9	left	513.48	1	1	1	1	1
Part_01	1	1	154	7	left	611.58	1	1	1	1	1
Part_01	1	1	155	1	left	709.03	1	1	1	1	1
Part_01	1	1	156	3	left	558.58	1	1	1	1	1
Part_01	1	1	157	4	right	653.63	1	1	1	1	1
Part_01	1	1	158	4	right	672.45	1	1	1	1	1
Part_01	1	1	159	1	left	552.13	1	1	1	1	1
Part_01	1	1	160	1	left	709.43	1	1	1	1	1
Part_01	1	1	161	2	right	607.8	1	1	1	1	1
Part_01	1	1	162	9	left	622.74	1	1	1	1	1
Part_01	1	1	163	4	right	910.29	1	1	1	1	0
Part_01	1	1	164	2	right	607.4	1	1	1	1	1
Part_01	1	1	165	9	left	559.6	1	1	1	1	1
Part_01	1	1	166	4	right	432.03	1	1	1	1	1
Part_01	1	1	167	3	left	451.28	1	1	1	1	1
Part_01	1	1	168	1	left	494.93	1	1	1	1	1
Part_01	1	1	169	7	left	572.18	1	1	1	1	1
Part_01	1	1	170	6	right	517.81	1	1	1	1	1
Part_01	1	1	171	8	right	450.12	1	1	1	1	1
Part_01	1	1	172	9	left	649.45	1	1	1	1	1
Part_01	1	1	173	7	left	697.34	1	1	1	1	1
Part_01	1	1	174	8	right	455.54	1	1	1	1	1
Part_01	1	1	175	4	right	612.82	1	1	1	1	1
Part_01	1	1	176	3	left	605.96	1	1	1	1	1
Part_01	1	1	177	9	left	513.61	1	1	1	1	1
Part_01	1	1	178	7	left	616.65	1	1	1	1	1
Part_01	1	1	179	2	right	478.45	1	1	1	1	1
Part_01	1	1	180	3	left	522.46	1	1	1	1	1
Part_01	1	1	181	1	left	528.22	1	1	1	1	1
Part_01	1	1	182	7	left	998.34	1	1	1	1	0
Part_01	1	1	183	1	left	569.3	1	1	1	1	1
Part_01	1	1	184	1	left	449.17	1	1	1	1	1
Part_01	1	1	185	6	right	616.6	1	1	1	1	1
Part_01	1	1	186	8	right	585.97	1	1	1	1	1
Part_01	1	1	187	7	left	942.32	1	1	1	1	0
Part_01	1	1	188	8	right	538.55	1	1	1	1	1
Part_01	1	1	189	2	right	630.67	1	1	1	1	1
Part_01	1	1	190	2	right	637.3	1	1	1	1	1
Part_01	1	1	191	4	right	558.45	1	1	1	1	1
Part_01	1	1	192	6	right	594.27	1	1	1	1	1
Part_01	1	1	193	7	left	545.09	1	1	1	1	1
Part_01	1	1	194	4	right	504.21	1	1	1	1	1
Part_01	1	1	195	7	left	649.65	1	1	1	1	1
Part_01	1	1	196	1	left	986.49	1	1	1	1	0
Part_01	1	1	197	3	left	609.98	1	1	1	1	1
Part_01	1	1	198	6	right	639.06	1	1	1	1	1
Part_01	1	1	199	8	right	521.07	1	1	1	1	1
Part_01	1	1	200	9	left	627.51	1	1	1	1	1
Part_01	1	1	201	6	right	553.66	1	1	1	1	1
Part_01	1	1	202	6	right	574	1	1	1	1	1
Part_01	1	1	203	2	right	627.57	1	1	1	1	1
Part_01	1	1	204	8	right	617.54	1	1	1	1	1
Part_01	1	1	205	8	right	548.1	1	1	1	1	1
Part_01	1	1	206	8	right	443.57	1	1	1	1	1
Part_01	1	1	207	3	left	479.11	1	1	1	1	1
Part_01	1	1	208	1	left	576.58	1	1	1	1	1
Part_01	1	1	209	4	right	548.97	1	1	1	1	1
Part_01	1	1	210	2	right	510.87	1	1	1	1	1
Part_01	1	1	211	3	left	511.82	1	1	1	1	1
Part_01	1	1	212	1	left	597.06	1	1	1	1	1
Part_01	1	1	213	6	right	479.93	1	1	1	1	1
Part_01	1	1	214	7	left	528.09	1	1	1	1	1
Part_01	1	1	215	9	left	657.67	1	1	1	1	1
Part_01	1	1	216	8	right	656.65	1	1	1	1	1
Part_01	1	1	217	1	left	587.97	1	1	1	1	1
Part_01	1	1	218	4	right	993.84	1	1	1	1	0
Part_01	1	1	219	2	right	500.71	1	1	1	1	1
Part_01	1	1	220	7	left	573.6	1	1	1	1	1
Part_01	1	1	221	2	right	531.48	1	1	1	1	1
Part_01	1	1	222	4	right	1042.22	1	1	1	1	0
Part_01	1	1	223	4	right	483.6	1	1	1	1	1
Part_01	1	1	224	7	left	544.8	1	1	1	1	1
Part_01	1	1	225	7	left	577.9	1	1	1	1	1
Part_01	1	1	226	1	left	491.12	1	1	1	1	1
Part_01	1	1	227	9	left	616.78	1	1	1	1	1
Part_01	1	1	228	3	left	543.03	1	1	1	1	1
Part_01	1	1	229	6	right	680.03	1	1	1	1	1
Part_01	1	1	230	8	right	476.73	1	1	1	1	1
Part_01	1	1	231	3	left	530.82	1	1	1	1	1
Part_01	1	1	232	3	left	527.07	1	1	1	1	1
Part_01	1	1	233	3	left	1083.12	1	1	1	1	0
Part_01	1	1	234	1	left	616.54	1	1	1	1	1
Part_01	1	1	235	3	left	523.17	1	1	1	1	1
Part_01	1	1	236	9	left	636.7	1	1	1	1	1
Part_01	1	1	237	3	left	495.52	1	1	1	1	1
Part_01	1	1	238	8	right	553.94	1	1	1	1	1
Part_01	1	1	239	4	right	590.56	1	1	1	1	1
Part_01	1	1	240	7	left	471.15	1	1	1	1	1
Part_01	1	9	11	2	left	548.93	0	1	0	0	0
Part_01	1	9	11	3	right	594.25	0	1	0	0	0
Part_01	1	9	11	4	left	570	0	1	0	0	0
Part_01	1	9	11	3	right	626.84	0	1	0	0	0
Part_01	1	9	11	7	right	1019.82	0	1	0	0	0
Part_01	1	9	11	1	right	637.57	0	1	0	0	0
Part_01	1	9	11	1	right	627.5	0	1	0	0	0
Part_01	1	9	11	8	left	639.43	0	1	0	0	0
Part_01	1	9	11	6	left	605.32	0	1	0	0	0
Part_01	1	9	11	8	left	407.95	0	1	0	0	0
Part_01	1	9	11	9	right	666.33	0	1	0	0	0
Part_01	1	9	11	4	left	516.6	0	1	0	0	0
Part_01	1	9	11	7	right	590.72	0	1	0	0	0
Part_01	1	9	11	6	left	527.96	0	1	0	0	0
Part_01	1	9	11	2	left	1057.93	0	1	0	0	0
Part_01	1	9	11	9	right	588.27	0	1	0	0	0
Part_01	1	2	1	4	left	541.12	1	1	1	1	1
Part_01	1	2	2	1	right	552.45	1	1	1	1	1
Part_01	1	2	3	6	left	506.24	1	1	1	1	1
Part_01	1	2	4	7	right	863.22	1	1	1	1	1
Part_01	1	2	5	9	right	603.89	1	1	1	1	1
Part_01	1	2	6	4	left	653.26	1	1	1	1	1
Part_01	1	2	7	2	left	664	1	1	1	1	1
Part_01	1	2	8	3	right	625.77	1	1	1	1	1
Part_01	1	2	9	3	right	482.91	1	1	1	1	1
Part_01	1	2	10	9	right	526.61	1	1	1	1	1
Part_01	1	2	11	8	left	752.6	1	1	1	1	1
Part_01	1	2	12	6	left	662.08	1	1	1	1	1
Part_01	1	2	13	4	left	695.17	1	1	1	1	1
Part_01	1	2	14	4	left	573.59	1	1	1	1	1
Part_01	1	2	15	3	right	389.14	1	1	1	1	1
Part_01	1	2	16	3	right	474.78	1	1	1	1	1
Part_01	1	2	17	9	right	1942.21	1	1	1	1	0
Part_01	1	2	18	8	left	922.65	1	1	1	1	0
Part_01	1	2	19	4	left	910.47	1	1	1	1	0
Part_01	1	2	20	8	left	486.34	1	1	1	1	1
Part_01	1	2	21	7	right	1242.79	1	1	1	1	0
Part_01	1	2	22	1	right	1106.12	1	1	1	1	0
Part_01	1	2	23	8	left	629.13	1	1	1	1	1
Part_01	1	2	24	6	left	548.22	1	1	1	1	1
Part_01	1	2	25	7	right	586.62	1	1	1	1	1
Part_01	1	2	26	1	right	608.91	1	1	1	1	1
Part_01	1	2	27	1	right	464.58	1	1	1	1	1
Part_01	1	2	28	1	right	655.62	1	1	1	1	1
Part_01	1	2	29	8	left	442.82	1	1	1	1	1
Part_01	1	2	30	8	left	456.42	1	1	1	1	1
Part_01	1	2	31	3	right	438.32	1	1	1	1	1
Part_01	1	2	32	9	right	540.21	1	1	1	1	1
Part_01	1	2	33	6	left	583.4	1	1	1	1	1
Part_01	1	2	34	4	left	523.03	1	1	1	1	1
Part_01	1	2	35	2	left	732.82	1	1	1	1	1
Part_01	1	2	36	3	right	521.02	1	1	1	1	1
Part_01	1	2	37	8	left	532.48	1	1	1	1	1
Part_01	1	2	38	9	right	560.03	1	1	1	1	1
Part_01	1	2	39	3	right	657.99	1	1	1	1	1
Part_01	1	2	40	3	right	892.06	1	1	1	1	0
Part_01	1	2	41	7	right	496.19	1	1	1	1	1
Part_01	1	2	42	9	right	579.76	1	1	1	1	1
Part_01	1	2	43	6	left	736.41	1	1	1	1	1
Part_01	1	2	44	6	left	1231.4	1	1	1	1	0
Part_01	1	2	45	4	left	684.15	1	1	1	1	1
Part_01	1	2	46	8	left	560.43	1	1	1	1	1
Part_01	1	2	47	4	left	515.57	1	1	1	1	1
Part_01	1	2	48	4	left	500.59	1	1	1	1	1
Part_01	1	2	49	6	left	698.3	1	1	1	1	1
Part_01	1	2	50	8	left	522.79	1	1	1	1	1
Part_01	1	2	51	2	left	474.48	1	1	1	1	1
Part_01	1	2	52	4	left	524.73	1	1	1	1	1
Part_01	1	2	53	7	right	548.77	1	1	1	1	1
Part_01	1	2	54	2	left	599.47	1	1	1	1	1
Part_01	1	2	55	6	left	576.95	1	1	1	1	1
Part_01	1	2	56	9	right	558.73	1	1	1	1	1
Part_01	1	2	57	2	left	369.42	1	1	1	1	1
Part_01	1	2	58	1	right	461.64	1	1	1	1	1
Part_01	1	2	59	7	right	557.12	1	1	1	1	1
Part_01	1	2	60	4	left	481.75	1	1	1	1	1
Part_01	1	2	61	1	right	1223.48	1	1	1	1	0
Part_01	1	2	62	4	left	704.6	1	1	1	1	1
Part_01	1	2	63	3	right	1018.61	1	1	1	1	0
Part_01	1	2	64	2	left	564.29	1	1	1	1	1
Part_01	1	2	65	3	right	981.81	1	1	1	1	0
Part_01	1	2	66	7	right	466.94	1	1	1	1	1
Part_01	1	2	67	7	right	512.9	1	1	1	1	1
Part_01	1	2	68	3	right	752.31	1	1	1	1	1
Part_01	1	2	69	4	left	527.14	1	1	1	1	1
Part_01	1	2	70	2	left	592.7	1	1	1	1	1
Part_01	1	2	71	9	right	774.57	1	1	1	1	1
Part_01	1	2	72	3	right	609.02	1	1	1	1	1
Part_01	1	2	73	4	left	698.45	1	1	1	1	1
Part_01	1	2	74	6	left	671.36	1	1	1	1	1
Part_01	1	2	75	1	right	685.77	1	1	1	1	1
Part_01	1	2	76	8	left	566.98	1	1	1	1	1
Part_01	1	2	77	9	right	511.18	1	1	1	1	1
Part_01	1	2	78	8	left	803.53	1	1	1	1	1
Part_01	1	2	79	7	right	621.42	1	1	1	1	1
Part_01	1	2	80	4	left	599.93	1	1	1	1	1
Part_01	1	2	81	1	right	617.31	1	1	1	1	1
Part_01	1	2	82	2	left	528	1	1	1	1	1
Part_01	1	2	83	8	left	852.18	1	1	1	1	1
Part_01	1	2	84	8	left	594.17	1	1	1	1	1
Part_01	1	2	85	8	left	527.43	1	1	1	1	1
Part_01	1	2	86	2	left	687.8	1	1	1	1	1
Part_01	1	2	87	4	left	484.65	1	1	1	1	1
Part_01	1	2	88	1	right	574.28	1	1	1	1	1
Part_01	1	2	89	9	right	898.77	1	1	1	1	0
Part_01	1	2	90	2	left	1320.05	1	1	1	1	0
Part_01	1	2	91	3	right	664.15	1	1	1	1	1
Part_01	1	2	92	7	right	568.53	1	1	1	1	1
Part_01	1	2	93	2	left	563.26	1	1	1	1	1
Part_01	1	2	94	4	left	616.63	1	1	1	1	1
Part_01	1	2	95	1	right	1333.21	1	1	1	1	0
Part_01	1	2	96	9	right	532.27	1	1	1	1	1
Part_01	1	2	97	8	left	487.71	1	1	1	1	1
Part_01	1	2	98	4	left	630.87	1	1	1	1	1
Part_01	1	2	99	1	right	603.1	1	1	1	1	1
Part_01	1	2	100	8	left	730.66	1	1	1	1	1
Part_01	1	2	101	8	left	523.77	1	1	1	1	1
Part_01	1	2	102	6	left	695.79	1	1	1	1	1
Part_01	1	2	103	6	left	585.91	1	1	1	1	1
Part_01	1	2	104	3	right	492.14	1	1	1	1	1
Part_01	1	2	105	8	left	572.84	1	1	1	1	1
Part_01	1	2	106	1	right	710.1	1	1	1	1	1
Part_01	1	2	107	7	right	501.92	1	1	1	1	1
Part_01	1	2	108	9	right	785.49	1	1	1	1	1
Part_01	1	2	109	7	right	627.84	1	1	1	1	1
Part_01	1	2	110	6	left	657.77	1	1	1	1	1
Part_01	1	2	111	8	left	523.26	1	1	1	1	1
Part_01	1	2	112	1	right	629.04	1	1	1	1	1
Part_01	1	2	113	4	left	534.49	1	1	1	1	1
Part_01	1	2	114	1	right	400.9	1	1	1	1	1
Part_01	1	2	115	6	left	602.14	1	1	1	1	1
Part_01	1	2	116	3	right	504.97	1	1	1	1	1
Part_01	1	2	117	4	left	517.36	1	1	1	1	1
Part_01	1	2	118	3	right	802.96	1	1	1	1	1
Part_01	1	2	119	6	left	689.3	1	1	1	1	1
Part_01	1	2	120	9	right	709.49	1	1	1	1	1
Part_01	1	2	121	3	right	525.89	1	1	1	1	1
Part_01	1	2	122	4	left	643.68	1	1	1	1	1
Part_01	1	2	123	7	right	935.66	1	1	1	1	0
Part_01	1	2	124	2	left	625.23	1	1	1	1	1
Part_01	1	2	125	4	left	664.79	1	1	1	1	1
Part_01	1	2	126	1	right	505.09	1	1	1	1	1
Part_01	1	2	127	7	right	758.68	1	1	1	1	1
Part_01	1	2	128	2	left	723.1	1	1	1	1	1
Part_01	1	2	129	8	left	553.52	1	1	1	1	1
Part_01	1	2	130	3	right	467.99	1	1	1	1	1
Part_01	1	2	131	3	right	701.31	1	1	1	1	1
Part_01	1	2	132	3	right	715.56	1	1	1	1	1
Part_01	1	2	133	6	left	545.71	1	1	1	1	1
Part_01	1	2	134	6	left	777.7	1	1	1	1	1
Part_01	1	2	135	4	left	998.53	1	1	1	1	0
Part_01	1	2	136	8	left	526.09	1	1	1	1	1
Part_01	1	2	137	9	right	519.92	1	1	1	1	1
Part_01	1	2	138	1	right	1345.29	1	1	1	1	0
Part_01	1	2	139	1	right	832.33	1	1	1	1	1
Part_01	1	2	140	9	right	590.97	1	1	1	1	1
Part_01	1	2	141	7	right	560.43	1	1	1	1	1
Part_01	1	2	142	2	left	640.26	1	1	1	1	1
Part_01	1	2	143	6	left	774.41	1	1	1	1	1
Part_01	1	2	144	8	left	445.45	1	1	1	1	1
Part_01	1	2	145	7	right	613.82	1	1	1	1	1
Part_01	1	2	146	1	right	621.28	1	1	1	1	1
Part_01	1	2	147	3	right	624.65	1	1	1	1	1
Part_01	1	2	148	7	right	488.59	1	1	1	1	1
Part_01	1	2	149	3	right	601.47	1	1	1	1	1
Part_01	1	2	150	6	left	594.59	1	1	1	1	1
Part_01	1	2	151	2	left	618.97	1	1	1	1	1
Part_01	1	2	152	2	left	779.64	1	1	1	1	1
Part_01	1	2	153	6	left	857.88	1	1	1	1	1
Part_01	1	2	154	7	right	617.19	1	1	1	1	1
Part_01	1	2	155	8	left	549.24	1	1	1	1	1
Part_01	1	2	156	9	right	775.23	1	1	1	1	1
Part_01	1	2	157	3	right	643.08	1	1	1	1	1
Part_01	1	2	158	6	left	596.39	1	1	1	1	1
Part_01	1	2	159	7	right	537.83	1	1	1	1	1
Part_01	1	2	160	3	right	509.34	1	1	1	1	1
Part_01	1	2	161	6	left	640.76	1	1	1	1	1
Part_01	1	2	162	6	left	926.76	1	1	1	1	0
Part_01	1	2	163	3	right	493.15	1	1	1	1	1
Part_01	1	2	164	3	right	535.54	1	1	1	1	1
Part_01	1	2	165	4	left	807.27	1	1	1	1	1
Part_01	1	2	166	6	left	1055.33	1	1	1	1	0
Part_01	1	2	167	1	right	717.25	1	1	1	1	1
Part_01	1	2	168	7	right	632.77	1	1	1	1	1
Part_01	1	2	169	1	right	459.17	1	1	1	1	1
Part_01	1	2	170	7	right	1281.86	1	1	1	1	0
Part_01	1	2	171	2	left	772.3	1	1	1	1	1
Part_01	1	2	172	8	left	533.37	1	1	1	1	1
Part_01	1	2	173	9	right	990.9	1	1	1	1	0
Part_01	1	2	174	6	left	696.52	1	1	1	1	1
Part_01	1	2	175	1	right	531.9	1	1	1	1	1
Part_01	1	2	176	9	right	565.95	1	1	1	1	1
Part_01	1	2	177	9	right	532.78	1	1	1	1	1
Part_01	1	2	178	9	right	536.35	1	1	1	1	1
Part_01	1	2	179	9	right	517.56	1	1	1	1	1
Part_01	1	2	180	6	left	595.54	1	1	1	1	1
Part_01	1	2	181	4	left	572.37	1	1	1	1	1
Part_01	1	2	182	7	right	561.15	1	1	1	1	1
Part_01	1	2	183	7	right	593.29	1	1	1	1	1
Part_01	1	2	184	9	right	599.69	1	1	1	1	1
Part_01	1	2	185	4	left	792.37	1	1	1	1	1
Part_01	1	2	186	9	right	575.76	1	1	1	1	1
Part_01	1	2	187	2	left	792.28	1	1	1	1	1
Part_01	1	2	188	8	left	631.21	1	1	1	1	1
Part_01	1	2	189	2	left	574.64	1	1	1	1	1
Part_01	1	2	190	7	right	554.31	1	1	1	1	1
Part_01	1	2	191	9	right	560.02	1	1	1	1	1
Part_01	1	2	192	2	left	633.2	1	1	1	1	1
Part_01	1	2	193	3	right	704.11	1	1	1	1	1
Part_01	1	2	194	1	right	622.57	1	1	1	1	1
Part_01	1	2	195	2	left	1026.42	1	1	1	1	0
Part_01	1	2	196	2	left	1086.8	1	1	1	1	0
Part_01	1	2	197	9	right	756.94	1	1	1	1	1
Part_01	1	2	198	1	right	804.06	1	1	1	1	1
Part_01	1	2	199	9	right	596.04	1	1	1	1	1
Part_01	1	2	200	4	left	478.17	1	1	1	1	1
Part_01	1	2	201	1	right	660.37	1	1	1	1	1
Part_01	1	2	202	7	right	554.11	1	1	1	1	1
Part_01	1	2	203	7	right	543.01	1	1	1	1	1
Part_01	1	2	204	2	left	1035.72	1	1	1	1	0
Part_01	1	2	205	9	right	599.65	1	1	1	1	1
Part_01	1	2	206	4	left	496.64	1	1	1	1	1
Part_01	1	2	207	6	left	665.63	1	1	1	1	1
Part_01	1	2	208	1	right	524.76	1	1	1	1	1
Part_01	1	2	209	3	right	451.38	1	1	1	1	1
Part_01	1	2	210	2	left	566.37	1	1	1	1	1
Part_01	1	2	211	6	left	852.71	1	1	1	1	1
Part_01	1	2	212	7	right	667.43	1	1	1	1	1
Part_01	1	2	213	3	right	539.35	1	1	1	1	1
Part_01	1	2	214	4	left	574.35	1	1	1	1	1
Part_01	1	2	215	2	left	754.3	1	1	1	1	1
Part_01	1	2	216	2	left	690.42	1	1	1	1	1
Part_01	1	2	217	7	right	480.33	1	1	1	1	1
Part_01	1	2	218	6	left	647.74	1	1	1	1	1
Part_01	1	2	219	2	left	621.93	1	1	1	1	1
Part_01	1	2	220	8	left	1022.82	1	1	1	1	0
Part_01	1	2	221	1	right	571.81	1	1	1	1	1
Part_01	1	2	222	9	right	582.08	1	1	1	1	1
Part_01	1	2	223	6	left	752.65	1	1	1	1	1
Part_01	1	2	224	1	right	608.94	1	1	1	1	1
Part_01	1	2	225	7	right	491.87	1	1	1	1	1
Part_01	1	2	226	8	left	451.29	1	1	1	1	1
Part_01	1	2	227	7	right	503.83	1	1	1	1	1
Part_01	1	2	228	8	left	647.4	1	1	1	1	1
Part_01	1	2	229	9	right	603.08	1	1	1	1	1
Part_01	1	2	230	2	left	577.03	1	1	1	1	1
Part_01	1	2	231	8	left	511.49	1	1	1	1	1
Part_01	1	2	232	2	left	722.47	1	1	1	1	1
Part_01	1	2	233	2	left	698.65	1	1	1	1	1
Part_01	1	2	234	1	right	655.34	1	1	1	1	1
Part_01	1	2	235	8	left	610.3	1	1	1	1	1
Part_01	1	2	236	1	right	586.8	1	1	1	1	1
Part_01	1	2	237	3	right	449.91	1	1	1	1	1
Part_01	1	2	238	9	right	-525.18	1	0	0	0	0
Part_01	1	2	239	4	left	601.07	1	1	1	1	1
Part_01	1	2	240	6	left	618.66	1	1	1	1	1
Part_02	1	8	11	3	left	1253.28	0	1	0	0	0
Part_02	1	8	11	4	right	762.38	0	1	0	0	0
Part_02	1	8	11	9	left	542.18	0	1	0	0	0
Part_02	1	8	11	8	right	-574.2	0	0	0	0	0
Part_02	1	8	11	3	left	-710.94	0	0	0	0	0
Part_02	1	8	11	6	right	585.89	0	1	0	0	0
Part_02	1	8	11	7	left	417.4	0	1	0	0	0
Part_02	1	8	11	6	right	554.5	0	1	0	0	0
Part_02	1	8	11	4	right	453.74	0	1	0	0	0
Part_02	1	8	11	2	right	415.04	0	1	0	0	0
Part_02	1	8	11	1	left	428.28	0	1	0	0	0
Part_02	1	8	11	7	left	386.23	0	1	0	0	0
Part_02	1	8	11	2	right	471.8	0	1	0	0	0
Part_02	1	8	11	1	left	368.96	0	1	0	0	0
Part_02	1	8	11	9	left	414.63	0	1	0	0	0
Part_02	1	8	11	8	right	-490.89	0	0	0	0	0
Part_02	1	1	1	9	left	451.21	1	1	1	1	1
Part_02	1	1	2	9	left	-520.76	1	0	0	0	0
Part_02	1	1	3	3	left	407.09	1	1	1	1	1
Part_02	1	1	4	3	left	566.01	1	1	1	1	1
Part_02	1	1	5	8	right	415.97	1	1	1	1	1
Part_02	1	1	6	3	left	387.4	1	1	1	1	1
Part_02	1	1	7	9	left	439.7	1	1	1	1	1
Part_02	1	1	8	8	right	415.11	1	1	1	1	1
Part_02	1	1	9	3	left	524.32	1	1	1	1	1
Part_02	1	1	10	3	left	494.64	1	1	1	1	1
Part_02	1	1	11	6	right	427.86	1	1	1	1	1
Part_02	1	1	12	2	right	621.16	1	1	1	1	1
Part_02	1	1	13	7	left	-359.81	1	0	0	0	0
Part_02	1	1	14	2	right	559.9	1	1	1	1	1
Part_02	1	1	15	8	right	608.01	1	1	1	1	1
Part_02	1	1	16	6	right	525.62	1	1	1	1	1
Part_02	1	1	17	7	left	485.02	1	1	1	1	1
Part_02	1	1	18	1	left	584.43	1	1	1	1	1
Part_02	1	1	19	8	right	397.41	1	1	1	1	1
Part_02	1	1	20	8	right	381.96	1	1	1	1	1
Part_02	1	1	21	4	right	460.21	1	1	1	1	1
Part_02	1	1	22	8	right	422.96	1	1	1	1	1
Part_02	1	1	23	6	right	542.5	1	1	1	1	1
Part_02	1	1	24	1	left	380.65	1	1	1	1	1
Part_02	1	1	25	4	right	511.5	1	1	1	1	1
Part_02	1	1	26	9	left	588.3	1	1	1	1	1
Part_02	1	1	27	2	right	397.74	1	1	1	1	1
Part_02	1	1	28	7	left	352.49	1	1	1	1	1
Part_02	1	1	29	8	right	445.28	1	1	1	1	1
Part_02	1	1	30	7	left	582.03	1	1	1	1	1
Part_02	1	1	31	3	left	576.83	1	1	1	1	1
Part_02	1	1	32	4	right	432.55	1	1	1	1	1
Part_02	1	1	33	1	left	447.49	1	1	1	1	1
Part_02	1	1	34	2	right	563.1	1	1	1	1	1
Part_02	1	1	35	7	left	448.27	1	1	1	1	1
Part_02	1	1	36	8	right	357.06	1	1	1	1	1
Part_02	1	1	37	8	right	389.81	1	1	1	1	1
Part_02	1	1	38	2	right	442.22	1	1	1	1	1
Part_02	1	1	39	4	right	595.21	1	1	1	1	1
Part_02	1	1	40	2	right	743.96	1	1	1	1	0
Part_02	1	1	41	7	left	477.92	1	1	1	1	1
Part_02	1	1	42	9	left	-492.92	1	0	0	0	0
Part_02	1	1	43	1	left	520.97	1	1	1	1	1
Part_02	1	1	44	6	right	584.82	1	1	1	1	1
Part_02	1	1	45	4	right	400.5	1	1	1	1	1
Part_02	1	1	46	4	right	420.08	1	1	1	1	1
Part_02	1	1	47	3	left	528.62	1	1	1	1	1
Part_02	1	1	48	9	left	536.71	1	1	1	1	1
Part_02	1	1	49	7	left	927.64	1	1	1	1	0
Part_02	1	1	50	7	left	907.71	1	1	1	1	0
Part_02	1	1	51	4	right	492.39	1	1	1	1	1
Part_02	1	1	52	7	left	417.24	1	1	1	1	1
Part_02	1	1	53	3	left	540.45	1	1	1	1	1
Part_02	1	1	54	6	right	408.6	1	1	1	1	1
Part_02	1	1	55	8	right	597.06	1	1	1	1	1
Part_02	1	1	56	8	right	516.77	1	1	1	1	1
Part_02	1	1	57	9	left	460.26	1	1	1	1	1
Part_02	1	1	58	7	left	432.18	1	1	1	1	1
Part_02	1	1	59	9	left	503.08	1	1	1	1	1
Part_02	1	1	60	7	left	425.22	1	1	1	1	1
Part_02	1	1	61	1	left	538.67	1	1	1	1	1
Part_02	1	1	62	4	right	407.53	1	1	1	1	1
Part_02	1	1	63	2	right	356.38	1	1	1	1	1
Part_02	1	1	64	7	left	668.96	1	1	1	1	1
Part_02	1	1	65	2	right	-390.32	1	0	0	0	0
Part_02	1	1	66	8	right	375.17	1	1	1	1	1
Part_02	1	1	67	3	left	463.23	1	1	1	1	1
Part_02	1	1	68	1	left	413.36	1	1	1	1	1
Part_02	1	1	69	6	right	516.9	1	1	1	1	1
Part_02	1	1	70	2	right	473.41	1	1	1	1	1
Part_02	1	1	71	4	right	317.68	1	1	1	1	1
Part_02	1	1	72	8	right	389.7	1	1	1	1	1
Part_02	1	1	73	3	left	522.36	1	1	1	1	1
Part_02	1	1	74	3	left	535.51	1	1	1	1	1
Part_02	1	1	75	4	right	486.18	1	1	1	1	1
Part_02	1	1	76	1	left	484.74	1	1	1	1	1
Part_02	1	1	77	1	left	472.1	1	1	1	1	1
Part_02	1	1	78	1	left	444.1	1	1	1	1	1
Part_02	1	1	79	7	left	456.57	1	1	1	1	1
Part_02	1	1	80	2	right	436.06	1	1	1	1	1
Part_02	1	1	81	2	right	553.14	1	1	1	1	1
Part_02	1	1	82	2	right	450.64	1	1	1	1	1
Part_02	1	1	83	4	right	409.95	1	1	1	1	1
Part_02	1	1	84	3	left	457.66	1	1	1	1	1
Part_02	1	1	85	1	left	381.68	1	1	1	1	1
Part_02	1	1	86	6	right	479.53	1	1	1	1	1
Part_02	1	1	87	4	right	391.86	1	1	1	1	1
Part_02	1	1	88	6	right	701.9	1	1	1	1	0
Part_02	1	1	89	7	left	390.9	1	1	1	1	1
Part_02	1	1	90	9	left	503.01	1	1	1	1	1
Part_02	1	1	91	9	left	548.62	1	1	1	1	1
Part_02	1	1	92	6	right	407.37	1	1	1	1	1
Part_02	1	1	93	8	right	486.65	1	1	1	1	1
Part_02	1	1	94	3	left	565.79	1	1	1	1	1
Part_02	1	1	95	7	left	408.17	1	1	1	1	1
Part_02	1	1	96	3	left	415.48	1	1	1	1	1
Part_02	1	1	97	7	left	493.08	1	1	1	1	1
Part_02	1	1	98	4	right	388.03	1	1	1	1	1
Part_02	1	1	99	3	left	471.64	1	1	1	1	1
Part_02	1	1	100	6	right	593.81	1	1	1	1	1
Part_02	1	1	101	8	right	389.9	1	1	1	1	1
Part_02	1	1	102	6	right	-381.77	1	0	0	0	0
Part_02	1	1	103	9	left	518.63	1	1	1	1	1
Part_02	1	1	104	6	right	427.71	1	1	1	1	1
Part_02	1	1	105	6	right	565.19	1	1	1	1	1
Part_02	1	1	106	3	left	477.66	1	1	1	1	1
Part_02	1	1	107	2	right	519.27	1	1	1	1	1
Part_02	1	1	108	2	right	526.39	1	1	1	1	1
Part_02	1	1	109	1	left	640.02	1	1	1	1	1
Part_02	1	1	110	1	left	627.77	1	1	1	1	1
Part_02	1	1	111	6	right	547.43	1	1	1	1	1
Part_02	1	1	112	1	left	449.13	1	1	1	1	1
Part_02	1	1	113	2	right	550.61	1	1	1	1	1
Part_02	1	1	114	9	left	450.4	1	1	1	1	1
Part_02	1	1	115	2	right	499.6	1	1	1	1	1
Part_02	1	1	116	8	right	476.4	1	1	1	1	1
Part_02	1	1	117	1	left	397.3	1	1	1	1	1
Part_02	1	1	118	6	right	449.48	1	1	1	1	1
Part_02	1	1	119	4	right	577.21	1	1	1	1	1
Part_02	1	1	120	8	right	415.87	1	1	1	1	1
Part_02	1	1	121	3	left	512.36	1	1	1	1	1
Part_02	1	1	122	3	left	442.25	1	1	1	1	1
Part_02	1	1	123	8	right	446.25	1	1	1	1	1
Part_02	1	1	124	1	left	608.04	1	1	1	1	1
Part_02	1	1	125	9	left	464.8	1	1	1	1	1
Part_02	1	1	126	4	right	436.62	1	1	1	1	1
Part_02	1	1	127	1	left	381.87	1	1	1	1	1
Part_02	1	1	128	7	left	461.23	1	1	1	1	1
Part_02	1	1	129	7	left	412.25	1	1	1	1	1
Part_02	1	1	130	6	right	458.29	1	1	1	1	1
Part_02	1	1	131	2	right	674.21	1	1	1	1	1
Part_02	1	1	132	4	right	452.57	1	1	1	1	1
Part_02	1	1	133	8	right	379.01	1	1	1	1	1
Part_02	1	1	134	1	left	458.45	1	1	1	1	1
Part_02	1	1	135	8	right	751.37	1	1	1	1	0
Part_02	1	1	136	3	left	629.11	1	1	1	1	1
Part_02	1	1	137	2	right	565.73	1	1	1	1	1
Part_02	1	1	138	6	right	386.91	1	1	1	1	1
Part_02	1	1	139	3	left	454.31	1	1	1	1	1
Part_02	1	1	140	2	right	-391.4	1	0	0	0	0
Part_02	1	1	141	2	right	391.84	1	1	1	1	1
Part_02	1	1	142	8	right	568.8	1	1	1	1	1
Part_02	1	1	143	6	right	428.25	1	1	1	1	1
Part_02	1	1	144	7	left	412.52	1	1	1	1	1
Part_02	1	1	145	4	right	480.66	1	1	1	1	1
Part_02	1	1	146	1	left	444.82	1	1	1	1	1
Part_02	1	1	147	6	right	469.55	1	1	1	1	1
Part_02	1	1	148	1	left	741.35	1	1	1	1	0
Part_02	1	1	149	3	left	498.68	1	1	1	1	1
Part_02	1	1	150	9	left	671.23	1	1	1	1	1
Part_02	1	1	151	1	left	605.2	1	1	1	1	1
Part_02	1	1	152	2	right	423.61	1	1	1	1	1
Part_02	1	1	153	1	left	440.87	1	1	1	1	1
Part_02	1	1	154	6	right	-428.84	1	0	0	0	0
Part_02	1	1	155	8	right	442.14	1	1	1	1	1
Part_02	1	1	156	4	right	402.19	1	1	1	1	1
Part_02	1	1	157	4	right	482.31	1	1	1	1	1
Part_02	1	1	158	8	right	423.85	1	1	1	1	1
Part_02	1	1	159	4	right	527.42	1	1	1	1	1
Part_02	1	1	160	7	left	464.89	1	1	1	1	1
Part_02	1	1	161	7	left	481.77	1	1	1	1	1
Part_02	1	1	162	3	left	409.54	1	1	1	1	1
Part_02	1	1	163	9	left	574.51	1	1	1	1	1
Part_02	1	1	164	8	right	424.82	1	1	1	1	1
Part_02	1	1	165	2	right	502.49	1	1	1	1	1
Part_02	1	1	166	9	left	601.75	1	1	1	1	1
Part_02	1	1	167	9	left	597.45	1	1	1	1	1
Part_02	1	1	168	9	left	418.2	1	1	1	1	1
Part_02	1	1	169	8	right	-476.35	1	0	0	0	0
Part_02	1	1	170	6	right	871.84	1	1	1	1	0
Part_02	1	1	171	7	left	414.9	1	1	1	1	1
Part_02	1	1	172	9	left	443.34	1	1	1	1	1
Part_02	1	1	173	9	left	486.98	1	1	1	1	1
Part_02	1	1	174	1	left	376.48	1	1	1	1	1
Part_02	1	1	175	6	right	442.57	1	1	1	1	1
Part_02	1	1	176	2	right	-503.85	1	0	0	0	0
Part_02	1	1	177	2	right	330.29	1	1	1	1	1
Part_02	1	1	178	1	left	451.87	1	1	1	1	1
Part_02	1	1	179	7	left	461.91	1	1	1	1	1
Part_02	1	1	180	6	right	478.45	1	1	1	1	1
Part_02	1	1	181	7	left	356.82	1	1	1	1	1
Part_02	1	1	182	7	left	415.56	1	1	1	1	1
Part_02	1	1	183	9	left	-469.29	1	0	0	0	0
Part_02	1	1	184	6	right	398.18	1	1	1	1	1
Part_02	1	1	185	4	right	394.79	1	1	1	1	1
Part_02	1	1	186	8	right	508.33	1	1	1	1	1
Part_02	1	1	187	2	right	425.94	1	1	1	1	1
Part_02	1	1	188	4	right	458.8	1	1	1	1	1
Part_02	1	1	189	3	left	401.88	1	1	1	1	1
Part_02	1	1	190	7	left	419.06	1	1	1	1	1
Part_02	1	1	191	8	right	486.31	1	1	1	1	1
Part_02	1	1	192	1	left	507.5	1	1	1	1	1
Part_02	1	1	193	4	right	751.35	1	1	1	1	0
Part_02	1	1	194	9	left	466.91	1	1	1	1	1
Part_02	1	1	195	4	right	525.31	1	1	1	1	1
Part_02	1	1	196	9	left	446.53	1	1	1	1	1
Part_02	1	1	197	9	left	401.75	1	1	1	1	1
Part_02	1	1	198	9	left	740.81	1	1	1	1	0
Part_02	1	1	199	6	right	-355.64	1	0	0	0	0
Part_02	1	1	200	2	right	448.37	1	1	1	1	1
Part_02	1	1	201	7	left	451.72	1	1	1	1	1
Part_02	1	1	202	6	right	586.76	1	1	1	1	1
Part_02	1	1	203	9	left	583.46	1	1	1	1	1
Part_02	1	1	204	7	left	439.59	1	1	1	1	1
Part_02	1	1	205	1	left	575.47	1	1	1	1	1
Part_02	1	1	206	1	left	369.99	1	1	1	1	1
Part_02	1	1	207	3	left	512.31	1	1	1	1	1
Part_02	1	1	208	4	right	463.95	1	1	1	1	1
Part_02	1	1	209	6	right	472.38	1	1	1	1	1
Part_02	1	1	210	1	left	407.58	1	1	1	1	1
Part_02	1	1	211	4	right	457.19	1	1	1	1	1
Part_02	1	1	212	2	right	593.41	1	1	1	1	1
Part_02	1	1	213	9	left	863.96	1	1	1	1	0
Part_02	1	1	214	6	right	451.08	1	1	1	1	1
Part_02	1	1	215	4	right	414.55	1	1	1	1	1
Part_02	1	1	216	7	left	472.73	1	1	1	1	1
Part_02	1	1	217	6	right	511.56	1	1	1	1	1
Part_02	1	1	218	3	left	443.56	1	1	1	1	1
Part_02	1	1	219	4	right	375.48	1	1	1	1	1
Part_02	1	1	220	8	right	536.36	1	1	1	1	1
Part_02	1	1	221	2	right	373.19	1	1	1	1	1
Part_02	1	1	222	6	right	435.58	1	1	1	1	1
Part_02	1	1	223	2	right	446.07	1	1	1	1	1
Part_02	1	1	224	9	left	478.2	1	1	1	1	1
Part_02	1	1	225	4	right	469.91	1	1	1	1	1
Part_02	1	1	226	7	left	765.48	1	1	1	1	0
Part_02	1	1	227	3	left	635.61	1	1	1	1	1
Part_02	1	1	228	8	right	458.19	1	1	1	1	1
Part_02	1	1	229	3	left	419.43	1	1	1	1	1
Part_02	1	1	230	1	left	577.26	1	1	1	1	1
Part_02	1	1	231	8	right	557.98	1	1	1	1	1
Part_02	1	1	232	9	left	386.93	1	1	1	1	1
Part_02	1	1	233	1	left	389.62	1	1	1	1	1
Part_02	1	1	234	3	left	-514.87	1	0	0	0	0
Part_02	1	1	235	4	right	536.43	1	1	1	1	1
Part_02	1	1	236	3	left	507.03	1	1	1	1	1
Part_02	1	1	237	2	right	420	1	1	1	1	1
Part_02	1	1	238	1	left	433.55	1	1	1	1	1
Part_02	1	1	239	9	left	469.5	1	1	1	1	1
Part_02	1	1	240	3	left	521.73	1	1	1	1	1
Part_02	1	9	11	6	left	553.45	0	1	0	0	0
Part_02	1	9	11	3	right	607.49	0	1	0	0	0
Part_02	1	9	11	3	right	927.46	0	1	0	0	0
Part_02	1	9	11	1	right	661.54	0	1	0	0	0
Part_02	1	9	11	8	left	501.76	0	1	0	0	0
Part_02	1	9	11	8	left	711.87	0	1	0	0	0
Part_02	1	9	11	4	left	465.19	0	1	0	0	0
Part_02	1	9	11	9	right	444.91	0	1	0	0	0
Part_02	1	9	11	9	right	425.43	0	1	0	0	0
Part_02	1	9	11	4	left	397.52	0	1	0	0	0
Part_02	1	9	11	1	right	793.32	0	1	0	0	0
Part_02	1	9	11	6	left	521.55	0	1	0	0	0
Part_02	1	9	11	7	right	569.81	0	1	0	0	0
Part_02	1	9	11	2	left	366.55	0	1	0	0	0
Part_02	1	9	11	7	right	369.98	0	1	0	0	0
Part_02	1	9	11	2	left	423.34	0	1	0	0	0
Part_02	1	2	1	4	left	390.69	1	1	1	1	1
Part_02	1	2	2	2	left	685.3	1	1	1	1	0
Part_02	1	2	3	3	right	369.16	1	1	1	1	1
Part_02	1	2	4	2	left	356.76	1	1	1	1	1
Part_02	1	2	5	9	right	466.13	1	1	1	1	1
Part_02	1	2	6	1	right	386.48	1	1	1	1	1
Part_02	1	2	7	2	left	364.07	1	1	1	1	1
Part_02	1	2	8	7	right	579.05	1	1	1	1	1
Part_02	1	2	9	3	right	587.7	1	1	1	1	1
Part_02	1	2	10	4	left	330.47	1	1	1	1	1
Part_02	1	2	11	4	left	412.26	1	1	1	1	1
Part_02	1	2	12	8	left	403.01	1	1	1	1	1
Part_02	1	2	13	4	left	377.85	1	1	1	1	1
Part_02	1	2	14	2	left	318.28	1	1	1	1	1
Part_02	1	2	15	2	left	833.92	1	1	1	1	0
Part_02	1	2	16	4	left	427.29	1	1	1	1	1
Part_02	1	2	17	9	right	380.79	1	1	1	1	1
Part_02	1	2	18	7	right	421.22	1	1	1	1	1
Part_02	1	2	19	4	left	435.36	1	1	1	1	1
Part_02	1	2	20	6	left	441.62	1	1	1	1	1
Part_02	1	2	21	2	left	435.34	1	1	1	1	1
Part_02	1	2	22	4	left	354.49	1	1	1	1	1
Part_02	1	2	23	4	left	363.4	1	1	1	1	1
Part_02	1	2	24	7	right	374.48	1	1	1	1	1
Part_02	1	2	25	9	right	491.84	1	1	1	1	1
Part_02	1	2	26	4	left	440.72	1	1	1	1	1
Part_02	1	2	27	6	left	445.84	1	1	1	1	1
Part_02	1	2	28	6	left	422.28	1	1	1	1	1
Part_02	1	2	29	3	right	412.51	1	1	1	1	1
Part_02	1	2	30	4	left	483.58	1	1	1	1	1
Part_02	1	2	31	9	right	474.76	1	1	1	1	1
Part_02	1	2	32	8	left	399.42	1	1	1	1	1
Part_02	1	2	33	9	right	623.34	1	1	1	1	1
Part_02	1	2	34	7	right	483.83	1	1	1	1	1
Part_02	1	2	35	6	left	394.59	1	1	1	1	1
Part_02	1	2	36	4	left	380.93	1	1	1	1	1
Part_02	1	2	37	8	left	370.53	1	1	1	1	1
Part_02	1	2	38	3	right	411.73	1	1	1	1	1
Part_02	1	2	39	7	right	359.44	1	1	1	1	1
Part_02	1	2	40	9	right	482.89	1	1	1	1	1
Part_02	1	2	41	8	left	372.2	1	1	1	1	1
Part_02	1	2	42	3	right	421.84	1	1	1	1	1
Part_02	1	2	43	4	left	437.59	1	1	1	1	1
Part_02	1	2	44	6	left	455.02	1	1	1	1	1
Part_02	1	2	45	2	left	483.86	1	1	1	1	1
Part_02	1	2	46	1	right	468.47	1	1	1	1	1
Part_02	1	2	47	3	right	558.83	1	1	1	1	1
Part_02	1	2	48	6	left	-392.05	1	0	0	0	0
Part_02	1	2	49	8	left	537.8	1	1	1	1	1
Part_02	1	2	50	8	left	358.45	1	1	1	1	1
Part_02	1	2	51	7	right	514.39	1	1	1	1	1
Part_02	1	2	52	3	right	397.56	1	1	1	1	1
Part_02	1	2	53	7	right	411.09	1	1	1	1	1
Part_02	1	2	54	1	right	-333.92	1	0	0	0	0
Part_02	1	2	55	8	left	422.76	1	1	1	1	1
Part_02	1	2	56	8	left	432.34	1	1	1	1	1
Part_02	1	2	57	7	right	408.79	1	1	1	1	1
Part_02	1	2	58	7	right	411.63	1	1	1	1	1
Part_02	1	2	59	2	left	301.96	1	1	1	1	1
Part_02	1	2	60	7	right	394.1	1	1	1	1	1
Part_02	1	2	61	2	left	373.48	1	1	1	1	1
Part_02	1	2	62	8	left	326.87	1	1	1	1	1
Part_02	1	2	63	3	right	627.38	1	1	1	1	1
Part_02	1	2	64	7	right	382.92	1	1	1	1	1
Part_02	1	2	65	9	right	373.64	1	1	1	1	1
Part_02	1	2	66	9	right	452.86	1	1	1	1	1
Part_02	1	2	67	9	right	670.42	1	1	1	1	1
Part_02	1	2	68	7	right	388.39	1	1	1	1	1
Part_02	1	2	69	7	right	509.24	1	1	1	1	1
Part_02	1	2	70	3	right	404.81	1	1	1	1	1
Part_02	1	2	71	9	right	445.26	1	1	1	1	1
Part_02	1	2	72	4	left	428.69	1	1	1	1	1
Part_02	1	2	73	1	right	446.91	1	1	1	1	1
Part_02	1	2	74	6	left	393.98	1	1	1	1	1
Part_02	1	2	75	3	right	339.74	1	1	1	1	1
Part_02	1	2	76	8	left	389.79	1	1	1	1	1
Part_02	1	2	77	4	left	431.26	1	1	1	1	1
Part_02	1	2	78	3	right	516.7	1	1	1	1	1
Part_02	1	2	79	8	left	380.29	1	1	1	1	1
Part_02	1	2	80	3	right	454.34	1	1	1	1	1
Part_02	1	2	81	1	right	558.15	1	1	1	1	1
Part_02	1	2	82	1	right	507.38	1	1	1	1	1
Part_02	1	2	83	4	left	394.69	1	1	1	1	1
Part_02	1	2	84	1	right	-335.84	1	0	0	0	0
Part_02	1	2	85	4	left	552.91	1	1	1	1	1
Part_02	1	2	86	8	left	362.54	1	1	1	1	1
Part_02	1	2	87	3	right	377.13	1	1	1	1	1
Part_02	1	2	88	9	right	617.95	1	1	1	1	1
Part_02	1	2	89	1	right	437.42	1	1	1	1	1
Part_02	1	2	90	9	right	364.74	1	1	1	1	1
Part_02	1	2	91	2	left	403.91	1	1	1	1	1
Part_02	1	2	92	4	left	360.77	1	1	1	1	1
Part_02	1	2	93	7	right	399.16	1	1	1	1	1
Part_02	1	2	94	6	left	421.26	1	1	1	1	1
Part_02	1	2	95	1	right	375.13	1	1	1	1	1
Part_02	1	2	96	9	right	326.86	1	1	1	1	1
Part_02	1	2	97	4	left	371.77	1	1	1	1	1
Part_02	1	2	98	1	right	412.23	1	1	1	1	1
Part_02	1	2	99	1	right	-431.21	1	0	0	0	0
Part_02	1	2	100	6	left	431.91	1	1	1	1	1
Part_02	1	2	101	8	left	411.24	1	1	1	1	1
Part_02	1	2	102	2	left	410.55	1	1	1	1	1
Part_02	1	2	103	9	right	482.12	1	1	1	1	1
Part_02	1	2	104	7	right	-326.59	1	0	0	0	0
Part_02	1	2	105	1	right	414.19	1	1	1	1	1
Part_02	1	2	106	6	left	401.63	1	1	1	1	1
Part_02	1	2	107	4	left	413.3	1	1	1	1	1
Part_02	1	2	108	4	left	404.99	1	1	1	1	1
Part_02	1	2	109	6	left	590.74	1	1	1	1	1
Part_02	1	2	110	7	right	398.41	1	1	1	1	1
Part_02	1	2	111	9	right	648.51	1	1	1	1	1
Part_02	1	2	112	3	right	393.21	1	1	1	1	1
Part_02	1	2	113	3	right	555.2	1	1	1	1	1
Part_02	1	2	114	9	right	344.39	1	1	1	1	1
Part_02	1	2	115	8	left	481.87	1	1	1	1	1
Part_02	1	2	116	7	right	498.28	1	1	1	1	1
Part_02	1	2	117	6	left	388.12	1	1	1	1	1
Part_02	1	2	118	6	left	497.4	1	1	1	1	1
Part_02	1	2	119	6	left	418.63	1	1	1	1	1
Part_02	1	2	120	2	left	589.92	1	1	1	1	1
Part_02	1	2	121	4	left	344.86	1	1	1	1	1
Part_02	1	2	122	8	left	376.17	1	1	1	1	1
Part_02	1	2	123	2	left	312.57	1	1	1	1	1
Part_02	1	2	124	1	right	466.18	1	1	1	1	1
Part_02	1	2	125	7	right	401.73	1	1	1	1	1
Part_02	1	2	126	6	left	429.91	1	1	1	1	1
Part_02	1	2	127	2	left	351.29	1	1	1	1	1
Part_02	1	2	128	8	left	310.37	1	1	1	1	1
Part_02	1	2	129	4	left	535.76	1	1	1	1	1
Part_02	1	2	130	4	left	376.01	1	1	1	1	1
Part_02	1	2	131	6	left	1571.54	1	1	1	1	0
Part_02	1	2	132	7	right	427.45	1	1	1	1	1
Part_02	1	2	133	4	left	376.62	1	1	1	1	1
Part_02	1	2	134	7	right	350.01	1	1	1	1	1
Part_02	1	2	135	7	right	396.72	1	1	1	1	1
Part_02	1	2	136	4	left	422.15	1	1	1	1	1
Part_02	1	2	137	3	right	398.59	1	1	1	1	1
Part_02	1	2	138	9	right	398.68	1	1	1	1	1
Part_02	1	2	139	2	left	388.73	1	1	1	1	1
Part_02	1	2	140	3	right	443.84	1	1	1	1	1
Part_02	1	2	141	7	right	334.94	1	1	1	1	1
Part_02	1	2	142	1	right	367.63	1	1	1	1	1
Part_02	1	2	143	8	left	393.89	1	1	1	1	1
Part_02	1	2	144	8	left	-463.27	1	0	0	0	0
Part_02	1	2	145	3	right	501.3	1	1	1	1	1
Part_02	1	2	146	7	right	401.08	1	1	1	1	1
Part_02	1	2	147	2	left	486.7	1	1	1	1	1
Part_02	1	2	148	6	left	779.96	1	1	1	1	0
Part_02	1	2	149	7	right	413.85	1	1	1	1	1
Part_02	1	2	150	2	left	485.01	1	1	1	1	1
Part_02	1	2	151	3	right	401.64	1	1	1	1	1
Part_02	1	2	152	3	right	382.32	1	1	1	1	1
Part_02	1	2	153	1	right	444.47	1	1	1	1	1
Part_02	1	2	154	9	right	-415.68	1	0	0	0	0
Part_02	1	2	155	1	right	431.05	1	1	1	1	1
Part_02	1	2	156	1	right	356.83	1	1	1	1	1
Part_02	1	2	157	3	right	635.28	1	1	1	1	1
Part_02	1	2	158	3	right	844.74	1	1	1	1	0
Part_02	1	2	159	2	left	488.74	1	1	1	1	1
Part_02	1	2	160	9	right	443.73	1	1	1	1	1
Part_02	1	2	161	7	right	393.55	1	1	1	1	1
Part_02	1	2	162	6	left	501.74	1	1	1	1	1
Part_02	1	2	163	1	right	489.47	1	1	1	1	1
Part_02	1	2	164	2	left	511.4	1	1	1	1	1
Part_02	1	2	165	1	right	444.95	1	1	1	1	1
Part_02	1	2	166	8	left	370.72	1	1	1	1	1
Part_02	1	2	167	1	right	543.24	1	1	1	1	1
Part_02	1	2	168	3	right	411.47	1	1	1	1	1
Part_02	1	2	169	4	left	365.24	1	1	1	1	1
Part_02	1	2	170	6	left	478.48	1	1	1	1	1
Part_02	1	2	171	2	left	502.09	1	1	1	1	1
Part_02	1	2	172	9	right	499.64	1	1	1	1	1
Part_02	1	2	173	8	left	320.1	1	1	1	1	1
Part_02	1	2	174	2	left	366.15	1	1	1	1	1
Part_02	1	2	175	8	left	356.97	1	1	1	1	1
Part_02	1	2	176	3	right	447.84	1	1	1	1	1
Part_02	1	2	177	8	left	319.2	1	1	1	1	1
Part_02	1	2	178	8	left	419.82	1	1	1	1	1
Part_02	1	2	179	1	right	-371.73	1	0	0	0	0
Part_02	1	2	180	8	left	383.03	1	1	1	1	1
Part_02	1	2	181	1	right	414.27	1	1	1	1	1
Part_02	1	2	182	6	left	407.52	1	1	1	1	1
Part_02	1	2	183	7	right	420.84	1	1	1	1	1
Part_02	1	2	184	8	left	368.7	1	1	1	1	1
Part_02	1	2	185	6	left	395.66	1	1	1	1	1
Part_02	1	2	186	8	left	338.52	1	1	1	1	1
Part_02	1	2	187	2	left	397.77	1	1	1	1	1
Part_02	1	2	188	2	left	305.48	1	1	1	1	1
Part_02	1	2	189	6	left	434.64	1	1	1	1	1
Part_02	1	2	190	3	right	455.27	1	1	1	1	1
Part_02	1	2	191	1	right	432.88	1	1	1	1	1
Part_02	1	2	192	9	right	429.34	1	1	1	1	1
Part_02	1	2	193	1	right	396.57	1	1	1	1	1
Part_02	1	2	194	9	right	500.92	1	1	1	1	1
Part_02	1	2	195	9	right	448.38	1	1	1	1	1
Part_02	1	2	196	1	right	655.08	1	1	1	1	1
Part_02	1	2	197	9	right	585.84	1	1	1	1	1
Part_02	1	2	198	2	left	462.84	1	1	1	1	1
Part_02	1	2	199	8	left	429.99	1	1	1	1	1
Part_02	1	2	200	2	left	370.4	1	1	1	1	1
Part_02	1	2	201	6	left	382.97	1	1	1	1	1
Part_02	1	2	202	8	left	381.73	1	1	1	1	1
Part_02	1	2	203	2	left	361.62	1	1	1	1	1
Part_02	1	2	204	6	left	376.06	1	1	1	1	1
Part_02	1	2	205	4	left	373.02	1	1	1	1	1
Part_02	1	2	206	7	right	465.54	1	1	1	1	1
Part_02	1	2	207	6	left	394.45	1	1	1	1	1
Part_02	1	2	208	9	right	459.99	1	1	1	1	1
Part_02	1	2	209	9	right	406.73	1	1	1	1	1
Part_02	1	2	210	3	right	408.34	1	1	1	1	1
Part_02	1	2	211	3	right	408.11	1	1	1	1	1
Part_02	1	2	212	9	right	671.89	1	1	1	1	1
Part_02	1	2	213	1	right	-418.7	1	0	0	0	0
Part_02	1	2	214	2	left	354.21	1	1	1	1	1
Part_02	1	2	215	2	left	390.34	1	1	1	1	1
Part_02	1	2	216	7	right	527.46	1	1	1	1	1
Part_02	1	2	217	9	right	442.77	1	1	1	1	1
Part_02	1	2	218	6	left	440.2	1	1	1	1	1
Part_02	1	2	219	1	right	417.39	1	1	1	1	1
Part_02	1	2	220	6	left	491.01	1	1	1	1	1
Part_02	1	2	221	1	right	447.01	1	1	1	1	1
Part_02	1	2	222	4	left	347.6	1	1	1	1	1
Part_02	1	2	223	2	left	351.82	1	1	1	1	1
Part_02	1	2	224	3	right	420.4	1	1	1	1	1
Part_02	1	2	225	8	left	346.55	1	1	1	1	1
Part_02	1	2	226	7	right	532.81	1	1	1	1	1
Part_02	1	2	227	8	left	344.98	1	1	1	1	1
Part_02	1	2	228	7	right	441.76	1	1	1	1	1
Part_02	1	2	229	6	left	375.39	1	1	1	1	1
Part_02	1	2	230	1	right	502.38	1	1	1	1	1
Part_02	1	2	231	9	right	503.05	1	1	1	1	1
Part_02	1	2	232	3	right	455.54	1	1	1	1	1
Part_02	1	2	233	3	right	429.31	1	1	1	1	1
Part_02	1	2	234	6	left	336.37	1	1	1	1	1
Part_02	1	2	235	4	left	484.67	1	1	1	1	1
Part_02	1	2	236	6	left	898.99	1	1	1	1	0
Part_02	1	2	237	4	left	381.93	1	1	1	1	1
Part_02	1	2	238	9	right	348.66	1	1	1	1	1
Part_02	1	2	239	1	right	380.24	1	1	1	1	1
Part_02	1	2	240	2	left	391.54	1	1	1	1	1
Part_03	1	8	11	9	left	1739.91	0	1	0	0	0
Part_03	1	8	11	8	right	800.03	0	1	0	0	0
Part_03	1	8	11	4	right	664.83	0	1	0	0	0
Part_03	1	8	11	8	right	568.73	0	1	0	0	0
Part_03	1	8	11	2	right	445.67	0	1	0	0	0
Part_03	1	8	11	4	right	551.28	0	1	0	0	0
Part_03	1	8	11	7	left	537.86	0	1	0	0	0
Part_03	1	8	11	6	right	445.05	0	1	0	0	0
Part_03	1	8	11	7	left	610.43	0	1	0	0	0
Part_03	1	8	11	6	right	497.53	0	1	0	0	0
Part_03	1	8	11	9	left	493.08	0	1	0	0	0
Part_03	1	8	11	1	left	508.11	0	1	0	0	0
Part_03	1	8	11	1	left	384.13	0	1	0	0	0
Part_03	1	8	11	3	left	545.81	0	1	0	0	0
Part_03	1	8	11	3	left	371.24	0	1	0	0	0
Part_03	1	8	11	2	right	443.61	0	1	0	0	0
Part_03	1	1	1	2	right	484.56	1	1	1	1	1
Part_03	1	1	2	9	left	-417.13	1	0	0	0	0
Part_03	1	1	3	1	left	449	1	1	1	1	1
Part_03	1	1	4	6	right	412.96	1	1	1	1	1
Part_03	1	1	5	9	left	438.93	1	1	1	1	1
Part_03	1	1	6	1	left	365.33	1	1	1	1	1
Part_03	1	1	7	7	left	407.46	1	1	1	1	1
Part_03	1	1	8	6	right	409.9	1	1	1	1	1
Part_03	1	1	9	8	right	435.8	1	1	1	1	1
Part_03	1	1	10	8	right	456.83	1	1	1	1	1
Part_03	1	1	11	4	right	528.85	1	1	1	1	1
Part_03	1	1	12	2	right	434.24	1	1	1	1	1
Part_03	1	1	13	4	right	495.12	1	1	1	1	1
Part_03	1	1	14	3	left	418.97	1	1	1	1	1
Part_03	1	1	15	7	left	403.27	1	1	1	1	1
Part_03	1	1	16	1	left	398.4	1	1	1	1	1
Part_03	1	1	17	2	right	524.09	1	1	1	1	1
Part_03	1	1	18	4	right	395.97	1	1	1	1	1
Part_03	1	1	19	7	left	706.44	1	1	1	1	0
Part_03	1	1	20	7	left	455.96	1	1	1	1	1
Part_03	1	1	21	4	right	498.05	1	1	1	1	1
Part_03	1	1	22	3	left	505.51	1	1	1	1	1
Part_03	1	1	23	8	right	428.1	1	1	1	1	1
Part_03	1	1	24	9	left	457.08	1	1	1	1	1
Part_03	1	1	25	4	right	526.65	1	1	1	1	1
Part_03	1	1	26	7	left	446.55	1	1	1	1	1
Part_03	1	1	27	8	right	513.96	1	1	1	1	1
Part_03	1	1	28	1	left	471.71	1	1	1	1	1
Part_03	1	1	29	1	left	365.23	1	1	1	1	1
Part_03	1	1	30	2	right	477.51	1	1	1	1	1
Part_03	1	1	31	2	right	467	1	1	1	1	1
Part_03	1	1	32	8	right	407.94	1	1	1	1	1
Part_03	1	1	33	6	right	448.79	1	1	1	1	1
Part_03	1	1	34	3	left	459.17	1	1	1	1	1
Part_03	1	1	35	6	right	492.07	1	1	1	1	1
Part_03	1	1	36	4	right	503.36	1	1	1	1	1
Part_03	1	1	37	2	right	464.68	1	1	1	1	1
Part_03	1	1	38	6	right	425.84	1	1	1	1	1
Part_03	1	1	39	1	left	398.51	1	1	1	1	1
Part_03	1	1	40	4	right	525.74	1	1	1	1	1
Part_03	1	1	41	6	right	455.61	1	1	1	1	1
Part_03	1	1	42	2	right	488.52	1	1	1	1	1
Part_03	1	1	43	4	right	497.51	1	1	1	1	1
Part_03	1	1	44	1	left	431.2	1	1	1	1	1
Part_03	1	1	45	8	right	499.8	1	1	1	1	1
Part_03	1	1	46	7	left	471.65	1	1	1	1	1
Part_03	1	1	47	7	left	383.36	1	1	1	1	1
Part_03	1	1	48	9	left	651.85	1	1	1	1	0
Part_03	1	1	49	3	left	373.44	1	1	1	1	1
Part_03	1	1	50	2	right	455.27	1	1	1	1	1
Part_03	1	1	51	3	left	350.59	1	1	1	1	1
Part_03	1	1	52	3	left	590	1	1	1	1	1
Part_03	1	1	53	3	left	392.7	1	1	1	1	1
Part_03	1	1	54	6	right	456.81	1	1	1	1	1
Part_03	1	1	55	6	right	459.9	1	1	1	1	1
Part_03	1	1	56	1	left	499.55	1	1	1	1	1
Part_03	1	1	57	4	right	419.41	1	1	1	1	1
Part_03	1	1	58	2	right	431.69	1	1	1	1	1
Part_03	1	1	59	7	left	415.22	1	1	1	1	1
Part_03	1	1	60	1	left	406.65	1	1	1	1	1
Part_03	1	1	61	1	left	464.07	1	1	1	1	1
Part_03	1	1	62	6	right	475.88	1	1	1	1	1
Part_03	1	1	63	8	right	470.5	1	1	1	1	1
Part_03	1	1	64	9	left	558.76	1	1	1	1	1
Part_03	1	1	65	6	right	506.6	1	1	1	1	1
Part_03	1	1	66	2	right	501.57	1	1	1	1	1
Part_03	1	1	67	8	right	384.73	1	1	1	1	1
Part_03	1	1	68	4	right	449.24	1	1	1	1	1
Part_03	1	1	69	8	right	389.5	1	1	1	1	1
Part_03	1	1	70	3	left	417.35	1	1	1	1	1
Part_03	1	1	71	3	left	422.17	1	1	1	1	1
Part_03	1	1	72	7	left	538.06	1	1	1	1	1
Part_03	1	1	73	2	right	492.45	1	1	1	1	1
Part_03	1	1	74	3	left	415.26	1	1	1	1	1
Part_03	1	1	75	8	right	399.72	1	1	1	1	1
Part_03	1	1	76	4	right	557.01	1	1	1	1	1
Part_03	1	1	77	4	right	535.27	1	1	1	1	1
Part_03	1	1	78	1	left	424.61	1	1	1	1	1
Part_03	1	1	79	6	right	488	1	1	1	1	1
Part_03	1	1	80	8	right	478.22	1	1	1	1	1
Part_03	1	1	81	3	left	406.74	1	1	1	1	1
Part_03	1	1	82	3	left	396.98	1	1	1	1	1
Part_03	1	1	83	6	right	476.28	1	1	1	1	1
Part_03	1	1	84	9	left	379.45	1	1	1	1	1
Part_03	1	1	85	9	left	449.71	1	1	1	1	1
Part_03	1	1	86	7	left	468.59	1	1	1	1	1
Part_03	1	1	87	1	left	411.09	1	1	1	1	1
Part_03	1	1	88	4	right	532.04	1	1	1	1	1
Part_03	1	1	89	8	right	401.04	1	1	1	1	1
Part_03	1	1	90	2	right	489.27	1	1	1	1	1
Part_03	1	1	91	2	right	492.6	1	1	1	1	1
Part_03	1	1	92	9	left	452.85	1	1	1	1	1
Part_03	1	1	93	9	left	439.33	1	1	1	1	1
Part_03	1	1	94	3	left	559.86	1	1	1	1	1
Part_03	1	1	95	8	right	460.76	1	1	1	1	1
Part_03	1	1	96	7	left	396	1	1	1	1	1
Part_03	1	1	97	9	left	471.31	1	1	1	1	1
Part_03	1	1	98	1	left	415.03	1	1	1	1	1
Part_03	1	1	99	6	right	432.8	1	1	1	1	1
Part_03	1	1	100	6	right	467.31	1	1	1	1	1
Part_03	1	1	101	7	left	408.44	1	1	1	1	1
Part_03	1	1	102	4	right	448.81	1	1	1	1	1
Part_03	1	1	103	9	left	477.5	1	1	1	1	1
Part_03	1	1	104	9	left	450.55	1	1	1	1	1
Part_03	1	1	105	3	left	491.93	1	1	1	1	1
Part_03	1	1	106	1	left	403	1	1	1	1	1
Part_03	1	1	107	3	left	396.53	1	1	1	1	1
Part_03	1	1	108	3	left	419.04	1	1	1	1	1
Part_03	1	1	109	7	left	390.86	1	1	1	1	1
Part_03	1	1	110	9	left	502.06	1	1	1	1	1
Part_03	1	1	111	2	right	420.27	1	1	1	1	1
Part_03	1	1	112	8	right	438.56	1	1	1	1	1
Part_03	1	1	113	6	right	470.74	1	1	1	1	1
Part_03	1	1	114	7	left	464.68	1	1	1	1	1
Part_03	1	1	115	9	left	537.01	1	1	1	1	1
Part_03	1	1	116	7	left	484.9	1	1	1	1	1
Part_03	1	1	117	4	right	480.9	1	1	1	1	1
Part_03	1	1	118	3	left	361.8	1	1	1	1	1
Part_03	1	1	119	1	left	405.26	1	1	1	1	1
Part_03	1	1	120	4	right	392.79	1	1	1	1	1
Part_03	1	1	121	8	right	419.05	1	1	1	1	1
Part_03	1	1	122	1	left	378.95	1	1	1	1	1
Part_03	1	1	123	4	right	558.03	1	1	1	1	1
Part_03	1	1	124	3	left	511.9	1	1	1	1	1
Part_03	1	1	125	6	right	397.16	1	1	1	1	1
Part_03	1	1	126	6	right	482.19	1	1	1	1	1
Part_03	1	1	127	7	left	474.21	1	1	1	1	1
Part_03	1	1	128	3	left	478.9	1	1	1	1	1
Part_03	1	1	129	8	right	424.49	1	1	1	1	1
Part_03	1	1	130	7	left	386.48	1	1	1	1	1
Part_03	1	1	131	4	right	485.92	1	1	1	1	1
Part_03	1	1	132	9	left	446.29	1	1	1	1	1
Part_03	1	1	133	2	right	500.59	1	1	1	1	1
Part_03	1	1	134	1	left	417.38	1	1	1	1	1
Part_03	1	1	135	1	left	411.41	1	1	1	1	1
Part_03	1	1	136	7	left	597.11	1	1	1	1	1
Part_03	1	1	137	6	right	471.28	1	1	1	1	1
Part_03	1	1	138	1	left	425.17	1	1	1	1	1
Part_03	1	1	139	3	left	433.91	1	1	1	1	1
Part_03	1	1	140	2	right	473.55	1	1	1	1	1
Part_03	1	1	141	4	right	544.94	1	1	1	1	1
Part_03	1	1	142	7	left	585	1	1	1	1	1
Part_03	1	1	143	9	left	491.98	1	1	1	1	1
Part_03	1	1	144	7	left	438.44	1	1	1	1	1
Part_03	1	1	145	6	right	512.53	1	1	1	1	1
Part_03	1	1	146	6	right	590.58	1	1	1	1	1
Part_03	1	1	147	3	left	430.67	1	1	1	1	1
Part_03	1	1	148	2	right	450.78	1	1	1	1	1
Part_03	1	1	149	7	left	453.57	1	1	1	1	1
Part_03	1	1	150	2	right	515.81	1	1	1	1	1
Part_03	1	1	151	7	left	452.84	1	1	1	1	1
Part_03	1	1	152	4	right	518.51	1	1	1	1	1
Part_03	1	1	153	2	right	386.36	1	1	1	1	1
Part_03	1	1	154	8	right	379.51	1	1	1	1	1
Part_03	1	1	155	1	left	515.31	1	1	1	1	1
Part_03	1	1	156	9	left	563.64	1	1	1	1	1
Part_03	1	1	157	2	right	508.57	1	1	1	1	1
Part_03	1	1	158	2	right	393.42	1	1	1	1	1
Part_03	1	1	159	9	left	475.55	1	1	1	1	1
Part_03	1	1	160	6	right	365.85	1	1	1	1	1
Part_03	1	1	161	2	right	482.02	1	1	1	1	1
Part_03	1	1	162	9	left	488.57	1	1	1	1	1
Part_03	1	1	163	6	right	520.76	1	1	1	1	1
Part_03	1	1	164	8	right	481.15	1	1	1	1	1
Part_03	1	1	165	3	left	501.5	1	1	1	1	1
Part_03	1	1	166	1	left	421.56	1	1	1	1	1
Part_03	1	1	167	1	left	500.55	1	1	1	1	1
Part_03	1	1	168	1	left	351.64	1	1	1	1	1
Part_03	1	1	169	8	right	454.42	1	1	1	1	1
Part_03	1	1	170	9	left	529.97	1	1	1	1	1
Part_03	1	1	171	3	left	446.68	1	1	1	1	1
Part_03	1	1	172	4	right	438.77	1	1	1	1	1
Part_03	1	1	173	3	left	436.73	1	1	1	1	1
Part_03	1	1	174	8	right	457.08	1	1	1	1	1
Part_03	1	1	175	2	right	443.87	1	1	1	1	1
Part_03	1	1	176	4	right	593.94	1	1	1	1	1
Part_03	1	1	177	1	left	597.69	1	1	1	1	1
Part_03	1	1	178	7	left	407.7	1	1	1	1	1
Part_03	1	1	179	9	left	587.72	1	1	1	1	1
Part_03	1	1	180	4	right	481.08	1	1	1	1	1
Part_03	1	1	181	8	right	384.48	1	1	1	1	1
Part_03	1	1	182	1	left	-816.27	1	0	0	0	0
Part_03	1	1	183	7	left	410.69	1	1	1	1	1
Part_03	1	1	184	4	right	437.8	1	1	1	1	1
Part_03	1	1	185	4	right	410.48	1	1	1	1	1
Part_03	1	1	186	9	left	435.63	1	1	1	1	1
Part_03	1	1	187	6	right	484.87	1	1	1	1	1
Part_03	1	1	188	9	left	463.21	1	1	1	1	1
Part_03	1	1	189	4	right	664.17	1	1	1	1	0
Part_03	1	1	190	8	right	400.28	1	1	1	1	1
Part_03	1	1	191	7	left	480.38	1	1	1	1	1
Part_03	1	1	192	4	right	505.24	1	1	1	1	1
Part_03	1	1	193	6	right	630.64	1	1	1	1	1
Part_03	1	1	194	7	left	417.4	1	1	1	1	1
Part_03	1	1	195	8	right	474.75	1	1	1	1	1
Part_03	1	1	196	6	right	409.22	1	1	1	1	1
Part_03	1	1	197	8	right	437.31	1	1	1	1	1
Part_03	1	1	198	2	right	510.7	1	1	1	1	1
Part_03	1	1	199	3	left	361.32	1	1	1	1	1
Part_03	1	1	200	6	right	495.34	1	1	1	1	1
Part_03	1	1	201	6	right	468.17	1	1	1	1	1
Part_03	1	1	202	7	left	518.08	1	1	1	1	1
Part_03	1	1	203	2	right	604	1	1	1	1	1
Part_03	1	1	204	9	left	578.92	1	1	1	1	1
Part_03	1	1	205	7	left	491	1	1	1	1	1
Part_03	1	1	206	9	left	486.12	1	1	1	1	1
Part_03	1	1	207	3	left	438.15	1	1	1	1	1
Part_03	1	1	208	8	right	526.32	1	1	1	1	1
Part_03	1	1	209	2	right	464.04	1	1	1	1	1
Part_03	1	1	210	3	left	504.72	1	1	1	1	1
Part_03	1	1	211	9	left	490.39	1	1	1	1	1
Part_03	1	1	212	4	right	493.26	1	1	1	1	1
Part_03	1	1	213	6	right	560.12	1	1	1	1	1
Part_03	1	1	214	8	right	481.69	1	1	1	1	1
Part_03	1	1	215	1	left	442.55	1	1	1	1	1
Part_03	1	1	216	9	left	520.1	1	1	1	1	1
Part_03	1	1	217	6	right	479.65	1	1	1	1	1
Part_03	1	1	218	1	left	442.89	1	1	1	1	1
Part_03	1	1	219	8	right	368.52	1	1	1	1	1
Part_03	1	1	220	6	right	414.66	1	1	1	1	1
Part_03	1	1	221	8	right	451.79	1	1	1	1	1
Part_03	1	1	222	1	left	451.46	1	1	1	1	1
Part_03	1	1	223	9	left	423.61	1	1	1	1	1
Part_03	1	1	224	1	left	410.3	1	1	1	1	1
Part_03	1	1	225	3	left	437.34	1	1	1	1	1
Part_03	1	1	226	2	right	429.35	1	1	1	1	1
Part_03	1	1	227	7	left	520.89	1	1	1	1	1
Part_03	1	1	228	2	right	412.04	1	1	1	1	1
Part_03	1	1	229	9	left	480.81	1	1	1	1	1
Part_03	1	1	230	9	left	454.68	1	1	1	1	1
Part_03	1	1	231	8	right	464.62	1	1	1	1	1
Part_03	1	1	232	2	right	391.9	1	1	1	1	1
Part_03	1	1	233	4	right	425.62	1	1	1	1	1
Part_03	1	1	234	3	left	427.36	1	1	1	1	1
Part_03	1	1	235	7	left	472.57	1	1	1	1	1
Part_03	1	1	236	1	left	423.73	1	1	1	1	1
Part_03	1	1	237	3	left	390.59	1	1	1	1	1
Part_03	1	1	238	8	right	459.98	1	1	1	1	1
Part_03	1	1	239	4	right	395	1	1	1	1	1
Part_03	1	1	240	2	right	477.7	1	1	1	1	1
Part_03	1	9	11	4	left	750.63	0	1	0	0	0
Part_03	1	9	11	8	left	525.05	0	1	0	0	0
Part_03	1	9	11	2	left	361.98	0	1	0	0	0
Part_03	1	9	11	7	right	388.85	0	1	0	0	0
Part_03	1	9	11	9	right	886.81	0	1	0	0	0
Part_03	1	9	11	1	right	608.64	0	1	0	0	0
Part_03	1	9	11	9	right	607.74	0	1	0	0	0
Part_03	1	9	11	7	right	479.4	0	1	0	0	0
Part_03	1	9	11	2	left	690.99	0	1	0	0	0
Part_03	1	9	11	6	left	630.87	0	1	0	0	0
Part_03	1	9	11	3	right	592.46	0	1	0	0	0
Part_03	1	9	11	1	right	698.59	0	1	0	0	0
Part_03	1	9	11	6	left	519.21	0	1	0	0	0
Part_03	1	9	11	8	left	-637.89	0	0	0	0	0
Part_03	1	9	11	3	right	1701.45	0	1	0	0	0
Part_03	1	9	11	4	left	552.39	0	1	0	0	0
Part_03	1	2	1	7	right	505.98	1	1	1	1	1
Part_03	1	2	2	7	right	564.97	1	1	1	1	1
Part_03	1	2	3	3	right	483.77	1	1	1	1	1
Part_03	1	2	4	6	left	358.87	1	1	1	1	1
Part_03	1	2	5	7	right	474.45	1	1	1	1	1
Part_03	1	2	6	2	left	459.02	1	1	1	1	1
Part_03	1	2	7	6	left	422.43	1	1	1	1	1
Part_03	1	2	8	9	right	461.94	1	1	1	1	1
Part_03	1	2	9	6	left	397.1	1	1	1	1	1
Part_03	1	2	10	4	left	415.2	1	1	1	1	1
Part_03	1	2	11	3	right	488.9	1	1	1	1	1
Part_03	1	2	12	9	right	483.77	1	1	1	1	1
Part_03	1	2	13	2	left	365.56	1	1	1	1	1
Part_03	1	2	14	9	right	483.38	1	1	1	1	1
Part_03	1	2	15	2	left	401.76	1	1	1	1	1
Part_03	1	2	16	6	left	488.94	1	1	1	1	1
Part_03	1	2	17	9	right	524.1	1	1	1	1	1
Part_03	1	2	18	1	right	511.46	1	1	1	1	1
Part_03	1	2	19	3	right	455.85	1	1	1	1	1
Part_03	1	2	20	4	left	576.88	1	1	1	1	1
Part_03	1	2	21	2	left	532.24	1	1	1	1	1
Part_03	1	2	22	6	left	472.02	1	1	1	1	1
Part_03	1	2	23	4	left	490.3	1	1	1	1	1
Part_03	1	2	24	4	left	425.15	1	1	1	1	1
Part_03	1	2	25	3	right	528.94	1	1	1	1	1
Part_03	1	2	26	1	right	638.62	1	1	1	1	1
Part_03	1	2	27	2	left	455.97	1	1	1	1	1
Part_03	1	2	28	2	left	381.14	1	1	1	1	1
Part_03	1	2	29	8	left	443.64	1	1	1	1	1
Part_03	1	2	30	6	left	478.23	1	1	1	1	1
Part_03	1	2	31	4	left	467	1	1	1	1	1
Part_03	1	2	32	9	right	480.45	1	1	1	1	1
Part_03	1	2	33	1	right	526.67	1	1	1	1	1
Part_03	1	2	34	9	right	538.26	1	1	1	1	1
Part_03	1	2	35	3	right	818.42	1	1	1	1	0
Part_03	1	2	36	9	right	588.66	1	1	1	1	1
Part_03	1	2	37	2	left	509.61	1	1	1	1	1
Part_03	1	2	38	6	left	432.49	1	1	1	1	1
Part_03	1	2	39	2	left	541.72	1	1	1	1	1
Part_03	1	2	40	4	left	438.58	1	1	1	1	1
Part_03	1	2	41	6	left	734.85	1	1	1	1	0
Part_03	1	2	42	3	right	539.06	1	1	1	1	1
Part_03	1	2	43	6	left	512.06	1	1	1	1	1
Part_03	1	2	44	3	right	532.01	1	1	1	1	1
Part_03	1	2	45	4	left	421.66	1	1	1	1	1
Part_03	1	2	46	6	left	362.08	1	1	1	1	1
Part_03	1	2	47	9	right	517.98	1	1	1	1	1
Part_03	1	2	48	9	right	518.25	1	1	1	1	1
Part_03	1	2	49	1	right	502.38	1	1	1	1	1
Part_03	1	2	50	4	left	512.81	1	1	1	1	1
Part_03	1	2	51	3	right	490.14	1	1	1	1	1
Part_03	1	2	52	4	left	433.09	1	1	1	1	1
Part_03	1	2	53	2	left	530.1	1	1	1	1	1
Part_03	1	2	54	7	right	456.96	1	1	1	1	1
Part_03	1	2	55	6	left	493.95	1	1	1	1	1
Part_03	1	2	56	1	right	534.76	1	1	1	1	1
Part_03	1	2	57	8	left	462.31	1	1	1	1	1
Part_03	1	2	58	1	right	459.14	1	1	1	1	1
Part_03	1	2	59	8	left	506.23	1	1	1	1	1
Part_03	1	2	60	4	left	476.75	1	1	1	1	1
Part_03	1	2	61	4	left	448.92	1	1	1	1	1
Part_03	1	2	62	8	left	472.06	1	1	1	1	1
Part_03	1	2	63	8	left	476.09	1	1	1	1	1
Part_03	1	2	64	7	right	499.23	1	1	1	1	1
Part_03	1	2	65	2	left	461.66	1	1	1	1	1
Part_03	1	2	66	3	right	374.39	1	1	1	1	1
Part_03	1	2	67	3	right	479.87	1	1	1	1	1
Part_03	1	2	68	7	right	478.95	1	1	1	1	1
Part_03	1	2	69	2	left	496.21	1	1	1	1	1
Part_03	1	2	70	7	right	561.99	1	1	1	1	1
Part_03	1	2	71	4	left	437.39	1	1	1	1	1
Part_03	1	2	72	2	left	495.47	1	1	1	1	1
Part_03	1	2	73	6	left	535.33	1	1	1	1	1
Part_03	1	2	74	7	right	446.25	1	1	1	1	1
Part_03	1	2	75	4	left	415.96	1	1	1	1	1
Part_03	1	2	76	3	right	463.67	1	1	1	1	1
Part_03	1	2	77	7	right	578.07	1	1	1	1	1
Part_03	1	2	78	3	right	490.45	1	1	1	1	1
Part_03	1	2	79	9	right	488.81	1	1	1	1	1
Part_03	1	2	80	7	right	512.84	1	1	1	1	1
Part_03	1	2	81	8	left	448.62	1	1	1	1	1
Part_03	1	2	82	6	left	428.02	1	1	1	1	1
Part_03	1	2	83	7	right	436.54	1	1	1	1	1
Part_03	1	2	84	9	right	502.59	1	1	1	1	1
Part_03	1	2	85	7	right	460.01	1	1	1	1	1
Part_03	1	2	86	1	right	583.64	1	1	1	1	1
Part_03	1	2	87	4	left	539.15	1	1	1	1	1
Part_03	1	2	88	8	left	410.19	1	1	1	1	1
Part_03	1	2	89	3	right	506.51	1	1	1	1	1
Part_03	1	2	90	8	left	433.64	1	1	1	1	1
Part_03	1	2	91	8	left	453.45	1	1	1	1	1
Part_03	1	2	92	8	left	467.11	1	1	1	1	1
Part_03	1	2	93	4	left	403.58	1	1	1	1	1
Part_03	1	2	94	2	left	404.82	1	1	1	1	1
Part_03	1	2	95	8	left	442.41	1	1	1	1	1
Part_03	1	2	96	1	right	498.71	1	1	1	1	1
Part_03	1	2	97	1	right	434.85	1	1	1	1	1
Part_03	1	2	98	9	right	506.44	1	1	1	1	1
Part_03	1	2	99	3	right	487.88	1	1	1	1	1
Part_03	1	2	100	4	left	480.33	1	1	1	1	1
Part_03	1	2	101	4	left	472.15	1	1	1	1	1
Part_03	1	2	102	8	left	602.72	1	1	1	1	1
Part_03	1	2	103	2	left	517.3	1	1	1	1	1
Part_03	1	2	104	7	right	453.31	1	1	1	1	1
Part_03	1	2	105	3	right	487.97	1	1	1	1	1
Part_03	1	2	106	3	right	454.67	1	1	1	1	1
Part_03	1	2	107	1	right	515.2	1	1	1	1	1
Part_03	1	2	108	7	right	473.59	1	1	1	1	1
Part_03	1	2	109	3	right	458.46	1	1	1	1	1
Part_03	1	2	110	3	right	550.81	1	1	1	1	1
Part_03	1	2	111	6	left	520.42	1	1	1	1	1
Part_03	1	2	112	4	left	428.98	1	1	1	1	1
Part_03	1	2	113	6	left	426.46	1	1	1	1	1
Part_03	1	2	114	1	right	558.17	1	1	1	1	1
Part_03	1	2	115	7	right	491.04	1	1	1	1	1
Part_03	1	2	116	1	right	438.04	1	1	1	1	1
Part_03	1	2	117	9	right	547.96	1	1	1	1	1
Part_03	1	2	118	3	right	609.62	1	1	1	1	1
Part_03	1	2	119	6	left	546.22	1	1	1	1	1
Part_03	1	2	120	6	left	495.84	1	1	1	1	1
Part_03	1	2	121	2	left	469.72	1	1	1	1	1
Part_03	1	2	122	1	right	510.62	1	1	1	1	1
Part_03	1	2	123	3	right	449.16	1	1	1	1	1
Part_03	1	2	124	4	left	497.25	1	1	1	1	1
Part_03	1	2	125	9	right	436.74	1	1	1	1	1
Part_03	1	2	126	9	right	585.29	1	1	1	1	1
Part_03	1	2	127	7	right	616.48	1	1	1	1	1
Part_03	1	2	128	2	left	349.98	1	1	1	1	1
Part_03	1	2	129	1	right	496.42	1	1	1	1	1
Part_03	1	2	130	3	right	463.02	1	1	1	1	1
Part_03	1	2	131	6	left	375.08	1	1	1	1	1
Part_03	1	2	132	6	left	480.84	1	1	1	1	1
Part_03	1	2	133	4	left	434.62	1	1	1	1	1
Part_03	1	2	134	6	left	425.79	1	1	1	1	1
Part_03	1	2	135	8	left	413.96	1	1	1	1	1
Part_03	1	2	136	2	left	479.46	1	1	1	1	1
Part_03	1	2	137	8	left	419.82	1	1	1	1	1
Part_03	1	2	138	7	right	591.78	1	1	1	1	1
Part_03	1	2	139	3	right	477.83	1	1	1	1	1
Part_03	1	2	140	8	left	506.33	1	1	1	1	1
Part_03	1	2	141	9	right	565.85	1	1	1	1	1
Part_03	1	2	142	2	left	370.66	1	1	1	1	1
Part_03	1	2	143	1	right	454.62	1	1	1	1	1
Part_03	1	2	144	6	left	597.38	1	1	1	1	1
Part_03	1	2	145	4	left	412.51	1	1	1	1	1
Part_03	1	2	146	8	left	546.56	1	1	1	1	1
Part_03	1	2	147	7	right	426.7	1	1	1	1	1
Part_03	1	2	148	7	right	480.46	1	1	1	1	1
Part_03	1	2	149	6	left	524.66	1	1	1	1	1
Part_03	1	2	150	2	left	553.67	1	1	1	1	1
Part_03	1	2	151	7	right	547.28	1	1	1	1	1
Part_03	1	2	152	7	right	512.06	1	1	1	1	1
Part_03	1	2	153	7	right	426.24	1	1	1	1	1
Part_03	1	2	154	2	left	406.32	1	1	1	1	1
Part_03	1	2	155	2	left	483.26	1	1	1	1	1
Part_03	1	2	156	2	left	509.44	1	1	1	1	1
Part_03	1	2	157	2	left	489.59	1	1	1	1	1
Part_03	1	2	158	7	right	516.1	1	1	1	1	1
Part_03	1	2	159	9	right	612.42	1	1	1	1	1
Part_03	1	2	160	1	right	556.82	1	1	1	1	1
Part_03	1	2	161	2	left	378.67	1	1	1	1	1
Part_03	1	2	162	8	left	535.65	1	1	1	1	1
Part_03	1	2	163	1	right	607.12	1	1	1	1	1
Part_03	1	2	164	8	left	349.66	1	1	1	1	1
Part_03	1	2	165	1	right	433.76	1	1	1	1	1
Part_03	1	2	166	6	left	417.04	1	1	1	1	1
Part_03	1	2	167	6	left	474.61	1	1	1	1	1
Part_03	1	2	168	1	right	468.39	1	1	1	1	1
Part_03	1	2	169	9	right	527.5	1	1	1	1	1
Part_03	1	2	170	1	right	473.48	1	1	1	1	1
Part_03	1	2	171	4	left	435.3	1	1	1	1	1
Part_03	1	2	172	8	left	442.09	1	1	1	1	1
Part_03	1	2	173	2	left	373.67	1	1	1	1	1
Part_03	1	2	174	7	right	482.07	1	1	1	1	1
Part_03	1	2	175	2	left	490.52	1	1	1	1	1
Part_03	1	2	176	4	left	517.64	1	1	1	1	1
Part_03	1	2	177	7	right	481.65	1	1	1	1	1
Part_03	1	2	178	9	right	484.72	1	1	1	1	1
Part_03	1	2	179	7	right	474.08	1	1	1	1	1
Part_03	1	2	180	9	right	564.11	1	1	1	1	1
Part_03	1	2	181	4	left	393.48	1	1	1	1	1
Part_03	1	2	182	7	right	477.54	1	1	1	1	1
Part_03	1	2	183	9	right	391.57	1	1	1	1	1
Part_03	1	2	184	6	left	424.56	1	1	1	1	1
Part_03	1	2	185	6	left	540.79	1	1	1	1	1
Part_03	1	2	186	8	left	431.66	1	1	1	1	1
Part_03	1	2	187	3	right	478.96	1	1	1	1	1
Part_03	1	2	188	1	right	647.95	1	1	1	1	0
Part_03	1	2	189	6	left	579.84	1	1	1	1	1
Part_03	1	2	190	8	left	464.15	1	1	1	1	1
Part_03	1	2	191	1	right	599.26	1	1	1	1	1
Part_03	1	2	192	6	left	387.91	1	1	1	1	1
Part_03	1	2	193	8	left	452.16	1	1	1	1	1
Part_03	1	2	194	6	left	417.06	1	1	1	1	1
Part_03	1	2	195	3	right	448.25	1	1	1	1	1
Part_03	1	2	196	7	right	518.44	1	1	1	1	1
Part_03	1	2	197	4	left	468.01	1	1	1	1	1
Part_03	1	2	198	4	left	408.88	1	1	1	1	1
Part_03	1	2	199	1	right	503.29	1	1	1	1	1
Part_03	1	2	200	3	right	511.29	1	1	1	1	1
Part_03	1	2	201	9	right	-495	1	0	0	0	0
Part_03	1	2	202	1	right	576.47	1	1	1	1	1
Part_03	1	2	203	9	right	448.67	1	1	1	1	1
Part_03	1	2	204	8	left	516.63	1	1	1	1	1
Part_03	1	2	205	1	right	539.79	1	1	1	1	1
Part_03	1	2	206	8	left	454.43	1	1	1	1	1
Part_03	1	2	207	9	right	487.39	1	1	1	1	1
Part_03	1	2	208	7	right	492.2	1	1	1	1	1
Part_03	1	2	209	4	left	384.7	1	1	1	1	1
Part_03	1	2	210	3	right	542.62	1	1	1	1	1
Part_03	1	2	211	8	left	419.85	1	1	1	1	1
Part_03	1	2	212	1	right	505	1	1	1	1	1
Part_03	1	2	213	9	right	502.64	1	1	1	1	1
Part_03	1	2	214	9	right	513.38	1	1	1	1	1
Part_03	1	2	215	6	left	443.11	1	1	1	1	1
Part_03	1	2	216	9	right	556.55	1	1	1	1	1
Part_03	1	2	217	2	left	445.07	1	1	1	1	1
Part_03	1	2	218	3	right	448.93	1	1	1	1	1
Part_03	1	2	219	4	left	434.94	1	1	1	1	1
Part_03	1	2	220	9	right	496.15	1	1	1	1	1
Part_03	1	2	221	8	left	520.07	1	1	1	1	1
Part_03	1	2	222	1	right	593.04	1	1	1	1	1
Part_03	1	2	223	8	left	521.92	1	1	1	1	1
Part_03	1	2	224	4	left	707.07	1	1	1	1	0
Part_03	1	2	225	9	right	639.73	1	1	1	1	1
Part_03	1	2	226	8	left	437.4	1	1	1	1	1
Part_03	1	2	227	2	left	437.99	1	1	1	1	1
Part_03	1	2	228	8	left	450.94	1	1	1	1	1
Part_03	1	2	229	1	right	561.5	1	1	1	1	1
Part_03	1	2	230	7	right	443.82	1	1	1	1	1
Part_03	1	2	231	8	left	444.56	1	1	1	1	1
Part_03	1	2	232	3	right	548.43	1	1	1	1	1
Part_03	1	2	233	2	left	443.98	1	1	1	1	1
Part_03	1	2	234	3	right	493.15	1	1	1	1	1
Part_03	1	2	235	2	left	360.73	1	1	1	1	1
Part_03	1	2	236	9	right	499.76	1	1	1	1	1
Part_03	1	2	237	3	right	503.54	1	1	1	1	1
Part_03	1	2	238	1	right	461.06	1	1	1	1	1
Part_03	1	2	239	4	left	358.14	1	1	1	1	1
Part_03	1	2	240	1	right	594.8	1	1	1	1	1
Part_04	1	8	11	3	left	1553.64	0	1	0	0	0
Part_04	1	8	11	8	right	821	0	1	0	0	0
Part_04	1	8	11	1	left	553.18	0	1	0	0	0
Part_04	1	8	11	6	right	456.15	0	1	0	0	0
Part_04	1	8	11	2	right	448.61	0	1	0	0	0
Part_04	1	8	11	4	right	348.9	0	1	0	0	0
Part_04	1	8	11	4	right	324.47	0	1	0	0	0
Part_04	1	8	11	6	right	375.19	0	1	0	0	0
Part_04	1	8	11	8	right	358.04	0	1	0	0	0
Part_04	1	8	11	9	left	485.35	0	1	0	0	0
Part_04	1	8	11	3	left	430.07	0	1	0	0	0
Part_04	1	8	11	1	left	412.15	0	1	0	0	0
Part_04	1	8	11	7	left	444.79	0	1	0	0	0
Part_04	1	8	11	2	right	490.69	0	1	0	0	0
Part_04	1	8	11	9	left	400.29	0	1	0	0	0
Part_04	1	8	11	7	left	489.22	0	1	0	0	0
Part_04	1	1	1	2	right	501.31	1	1	1	1	1
Part_04	1	1	2	3	left	661.64	1	1	1	1	1
Part_04	1	1	3	2	right	395.12	1	1	1	1	1
Part_04	1	1	4	3	left	488.28	1	1	1	1	1
Part_04	1	1	5	6	right	555.79	1	1	1	1	1
Part_04	1	1	6	4	right	471.38	1	1	1	1	1
Part_04	1	1	7	4	right	465.67	1	1	1	1	1
Part_04	1	1	8	2	right	373.7	1	1	1	1	1
Part_04	1	1	9	2	right	409.95	1	1	1	1	1
Part_04	1	1	10	9	left	461.78	1	1	1	1	1
Part_04	1	1	11	3	left	376.53	1	1	1	1	1
Part_04	1	1	12	4	right	511.93	1	1	1	1	1
Part_04	1	1	13	3	left	395.4	1	1	1	1	1
Part_04	1	1	14	6	right	370.35	1	1	1	1	1
Part_04	1	1	15	9	left	625.33	1	1	1	1	1
Part_04	1	1	16	3	left	400.73	1	1	1	1	1
Part_04	1	1	17	4	right	515.71	1	1	1	1	1
Part_04	1	1	18	2	right	511.13	1	1	1	1	1
Part_04	1	1	19	8	right	431.47	1	1	1	1	1
Part_04	1	1	20	2	right	520.44	1	1	1	1	1
Part_04	1	1	21	8	right	428.32	1	1	1	1	1
Part_04	1	1	22	1	left	398.05	1	1	1	1	1
Part_04	1	1	23	8	right	475.07	1	1	1	1	1
Part_04	1	1	24	9	left	471.91	1	1	1	1	1
Part_04	1	1	25	4	right	504.97	1	1	1	1	1
Part_04	1	1	26	3	left	385.63	1	1	1	1	1
Part_04	1	1	27	9	left	496.94	1	1	1	1	1
Part_04	1	1	28	4	right	377.01	1	1	1	1	1
Part_04	1	1	29	7	left	888.11	1	1	1	1	0
Part_04	1	1	30	4	right	820.7	1	1	1	1	0
Part_04	1	1	31	2	right	431.15	1	1	1	1	1
Part_04	1	1	32	9	left	771.07	1	1	1	1	1
Part_04	1	1	33	3	left	579.23	1	1	1	1	1
Part_04	1	1	34	1	left	524.2	1	1	1	1	1
Part_04	1	1	35	8	right	434.16	1	1	1	1	1
Part_04	1	1	36	9	left	478.8	1	1	1	1	1
Part_04	1	1	37	2	right	370.01	1	1	1	1	1
Part_04	1	1	38	7	left	542.1	1	1	1	1	1
Part_04	1	1	39	1	left	475.58	1	1	1	1	1
Part_04	1	1	40	7	left	427.35	1	1	1	1	1
Part_04	1	1	41	4	right	627.11	1	1	1	1	1
Part_04	1	1	42	9	left	517.01	1	1	1	1	1
Part_04	1	1	43	8	right	479.67	1	1	1	1	1
Part_04	1	1	44	9	left	546.84	1	1	1	1	1
Part_04	1	1	45	9	left	532.22	1	1	1	1	1
Part_04	1	1	46	4	right	451.59	1	1	1	1	1
Part_04	1	1	47	2	right	478.05	1	1	1	1	1
Part_04	1	1	48	9	left	694.81	1	1	1	1	1
Part_04	1	1	49	2	right	444.78	1	1	1	1	1
Part_04	1	1	50	1	left	354.27	1	1	1	1	1
Part_04	1	1	51	3	left	505.13	1	1	1	1	1
Part_04	1	1	52	7	left	358.26	1	1	1	1	1
Part_04	1	1	53	2	right	871.32	1	1	1	1	0
Part_04	1	1	54	8	right	400.99	1	1	1	1	1
Part_04	1	1	55	6	right	904.84	1	1	1	1	0
Part_04	1	1	56	4	right	391.55	1	1	1	1	1
Part_04	1	1	57	3	left	410.52	1	1	1	1	1
Part_04	1	1	58	9	left	524.23	1	1	1	1	1
Part_04	1	1	59	7	left	937.31	1	1	1	1	0
Part_04	1	1	60	7	left	474.21	1	1	1	1	1
Part_04	1	1	61	8	right	733.79	1	1	1	1	1
Part_04	1	1	62	2	right	502.72	1	1	1	1	1
Part_04	1	1	63	6	right	431.32	1	1	1	1	1
Part_04	1	1	64	4	right	420.93	1	1	1	1	1
Part_04	1	1	65	2	right	527.07	1	1	1	1	1
Part_04	1	1	66	7	left	1596.21	1	1	1	1	0
Part_04	1	1	67	9	left	426.39	1	1	1	1	1
Part_04	1	1	68	8	right	551.88	1	1	1	1	1
Part_04	1	1	69	9	left	483.57	1	1	1	1	1
Part_04	1	1	70	8	right	449.64	1	1	1	1	1
Part_04	1	1	71	9	left	437.11	1	1	1	1	1
Part_04	1	1	72	1	left	570.04	1	1	1	1	1
Part_04	1	1	73	8	right	-377.19	1	0	0	0	0
Part_04	1	1	74	1	left	440.37	1	1	1	1	1
Part_04	1	1	75	3	left	408.11	1	1	1	1	1
Part_04	1	1	76	9	left	492.68	1	1	1	1	1
Part_04	1	1	77	7	left	487.64	1	1	1	1	1
Part_04	1	1	78	6	right	391.46	1	1	1	1	1
Part_04	1	1	79	6	right	574.61	1	1	1	1	1
Part_04	1	1	80	1	left	389.44	1	1	1	1	1
Part_04	1	1	81	8	right	389.41	1	1	1	1	1
Part_04	1	1	82	9	left	778.83	1	1	1	1	1
Part_04	1	1	83	2	right	463.31	1	1	1	1	1
Part_04	1	1	84	7	left	764.18	1	1	1	1	1
Part_04	1	1	85	6	right	415.72	1	1	1	1	1
Part_04	1	1	86	8	right	622.41	1	1	1	1	1
Part_04	1	1	87	3	left	531.43	1	1	1	1	1
Part_04	1	1	88	2	right	476.32	1	1	1	1	1
Part_04	1	1	89	4	right	605.22	1	1	1	1	1
Part_04	1	1	90	2	right	408.39	1	1	1	1	1
Part_04	1	1	91	9	left	582.92	1	1	1	1	1
Part_04	1	1	92	7	left	751.79	1	1	1	1	1
Part_04	1	1	93	1	left	433.53	1	1	1	1	1
Part_04	1	1	94	6	right	433.99	1	1	1	1	1
Part_04	1	1	95	7	left	1466.21	1	1	1	1	0
Part_04	1	1	96	8	right	504.1	1	1	1	1	1
Part_04	1	1	97	4	right	672.82	1	1	1	1	1
Part_04	1	1	98	7	left	398.44	1	1	1	1	1
Part_04	1	1	99	6	right	369.79	1	1	1	1	1
Part_04	1	1	100	1	left	491.42	1	1	1	1	1
Part_04	1	1	101	3	left	457.11	1	1	1	1	1
Part_04	1	1	102	9	left	542.29	1	1	1	1	1
Part_04	1	1	103	2	right	411.66	1	1	1	1	1
Part_04	1	1	104	6	right	737.95	1	1	1	1	1
Part_04	1	1	105	2	right	511.78	1	1	1	1	1
Part_04	1	1	106	6	right	463.92	1	1	1	1	1
Part_04	1	1	107	1	left	569.98	1	1	1	1	1
Part_04	1	1	108	4	right	430.47	1	1	1	1	1
Part_04	1	1	109	7	left	917	1	1	1	1	0
Part_04	1	1	110	6	right	497.16	1	1	1	1	1
Part_04	1	1	111	4	right	429.09	1	1	1	1	1
Part_04	1	1	112	4	right	761.12	1	1	1	1	1
Part_04	1	1	113	8	right	392.38	1	1	1	1	1
Part_04	1	1	114	3	left	504.14	1	1	1	1	1
Part_04	1	1	115	4	right	349.22	1	1	1	1	1
Part_04	1	1	116	7	left	686.01	1	1	1	1	1
Part_04	1	1	117	1	left	448.81	1	1	1	1	1
Part_04	1	1	118	6	right	394.94	1	1	1	1	1
Part_04	1	1	119	8	right	371.67	1	1	1	1	1
Part_04	1	1	120	1	left	394.58	1	1	1	1	1
Part_04	1	1	121	3	left	378.78	1	1	1	1	1
Part_04	1	1	122	7	left	726.78	1	1	1	1	1
Part_04	1	1	123	4	right	457.35	1	1	1	1	1
Part_04	1	1	124	7	left	1019.32	1	1	1	1	0
Part_04	1	1	125	1	left	439.24	1	1	1	1	1
Part_04	1	1	126	8	right	495.32	1	1	1	1	1
Part_04	1	1	127	2	right	431.74	1	1	1	1	1
Part_04	1	1	128	1	left	453.65	1	1	1	1	1
Part_04	1	1	129	6	right	460.48	1	1	1	1	1
Part_04	1	1	130	4	right	720.6	1	1	1	1	1
Part_04	1	1	131	1	left	388.68	1	1	1	1	1
Part_04	1	1	132	2	right	486.12	1	1	1	1	1
Part_04	1	1	133	2	right	500.4	1	1	1	1	1
Part_04	1	1	134	3	left	438.14	1	1	1	1	1
Part_04	1	1	135	3	left	441.71	1	1	1	1	1
Part_04	1	1	136	1	left	480.6	1	1	1	1	1
Part_04	1	1	137	7	left	987.58	1	1	1	1	0
Part_04	1	1	138	9	left	483.48	1	1	1	1	1
Part_04	1	1	139	3	left	512.48	1	1	1	1	1
Part_04	1	1	140	8	right	350.23	1	1	1	1	1
Part_04	1	1	141	9	left	397.83	1	1	1	1	1
Part_04	1	1	142	7	left	526.62	1	1	1	1	1
Part_04	1	1	143	3	left	447.41	1	1	1	1	1
Part_04	1	1	144	3	left	378.01	1	1	1	1	1
Part_04	1	1	145	8	right	506.98	1	1	1	1	1
Part_04	1	1	146	4	right	482.48	1	1	1	1	1
Part_04	1	1	147	1	left	371.91	1	1	1	1	1
Part_04	1	1	148	3	left	458.19	1	1	1	1	1
Part_04	1	1	149	8	right	491.68	1	1	1	1	1
Part_04	1	1	150	2	right	434.8	1	1	1	1	1
Part_04	1	1	151	7	left	522.23	1	1	1	1	1
Part_04	1	1	152	6	right	369.31	1	1	1	1	1
Part_04	1	1	153	4	right	-427.09	1	0	0	0	0
Part_04	1	1	154	4	right	989.26	1	1	1	1	0
Part_04	1	1	155	9	left	422.91	1	1	1	1	1
Part_04	1	1	156	3	left	473.16	1	1	1	1	1
Part_04	1	1	157	1	left	548.8	1	1	1	1	1
Part_04	1	1	158	1	left	396.72	1	1	1	1	1
Part_04	1	1	159	3	left	513.06	1	1	1	1	1
Part_04	1	1	160	9	left	451.63	1	1	1	1	1
Part_04	1	1	161	3	left	679.63	1	1	1	1	1
Part_04	1	1	162	6	right	442.66	1	1	1	1	1
Part_04	1	1	163	1	left	381.41	1	1	1	1	1
Part_04	1	1	164	3	left	400.24	1	1	1	1	1
Part_04	1	1	165	7	left	742.1	1	1	1	1	1
Part_04	1	1	166	2	right	469.42	1	1	1	1	1
Part_04	1	1	167	4	right	531.47	1	1	1	1	1
Part_04	1	1	168	3	left	478.06	1	1	1	1	1
Part_04	1	1	169	9	left	639.84	1	1	1	1	1
Part_04	1	1	170	3	left	413.57	1	1	1	1	1
Part_04	1	1	171	9	left	454.71	1	1	1	1	1
Part_04	1	1	172	4	right	677.29	1	1	1	1	1
Part_04	1	1	173	9	left	-562.4	1	0	0	0	0
Part_04	1	1	174	8	right	442.24	1	1	1	1	1
Part_04	1	1	175	9	left	573.43	1	1	1	1	1
Part_04	1	1	176	7	left	470.6	1	1	1	1	1
Part_04	1	1	177	7	left	552.05	1	1	1	1	1
Part_04	1	1	178	1	left	565.84	1	1	1	1	1
Part_04	1	1	179	8	right	445.72	1	1	1	1	1
Part_04	1	1	180	9	left	526.88	1	1	1	1	1
Part_04	1	1	181	7	left	381.3	1	1	1	1	1
Part_04	1	1	182	2	right	396.17	1	1	1	1	1
Part_04	1	1	183	8	right	830.63	1	1	1	1	0
Part_04	1	1	184	6	right	406.36	1	1	1	1	1
Part_04	1	1	185	1	left	615.87	1	1	1	1	1
Part_04	1	1	186	1	left	584.13	1	1	1	1	1
Part_04	1	1	187	8	right	385.94	1	1	1	1	1
Part_04	1	1	188	8	right	388.4	1	1	1	1	1
Part_04	1	1	189	3	left	442.35	1	1	1	1	1
Part_04	1	1	190	8	right	481.7	1	1	1	1	1
Part_04	1	1	191	8	right	376.43	1	1	1	1	1
Part_04	1	1	192	1	left	469.22	1	1	1	1	1
Part_04	1	1	193	2	right	360.03	1	1	1	1	1
Part_04	1	1	194	2	right	483.04	1	1	1	1	1
Part_04	1	1	195	1	left	472.49	1	1	1	1	1
Part_04	1	1	196	6	right	396.49	1	1	1	1	1
Part_04	1	1	197	7	left	520.5	1	1	1	1	1
Part_04	1	1	198	6	right	583.51	1	1	1	1	1
Part_04	1	1	199	1	left	365.84	1	1	1	1	1
Part_04	1	1	200	2	right	-723.75	1	0	0	0	0
Part_04	1	1	201	9	left	518.95	1	1	1	1	1
Part_04	1	1	202	8	right	845.18	1	1	1	1	0
Part_04	1	1	203	7	left	531.38	1	1	1	1	1
Part_04	1	1	204	6	right	366.92	1	1	1	1	1
Part_04	1	1	205	6	right	467.32	1	1	1	1	1
Part_04	1	1	206	4	right	403.82	1	1	1	1	1
Part_04	1	1	207	6	right	804.83	1	1	1	1	0
Part_04	1	1	208	1	left	627.53	1	1	1	1	1
Part_04	1	1	209	1	left	409.53	1	1	1	1	1
Part_04	1	1	210	2	right	556.68	1	1	1	1	1
Part_04	1	1	211	6	right	424.54	1	1	1	1	1
Part_04	1	1	212	7	left	498.16	1	1	1	1	1
Part_04	1	1	213	6	right	456.12	1	1	1	1	1
Part_04	1	1	214	7	left	421.12	1	1	1	1	1
Part_04	1	1	215	6	right	429.74	1	1	1	1	1
Part_04	1	1	216	6	right	436.13	1	1	1	1	1
Part_04	1	1	217	8	right	391.5	1	1	1	1	1
Part_04	1	1	218	4	right	446.1	1	1	1	1	1
Part_04	1	1	219	7	left	453.56	1	1	1	1	1
Part_04	1	1	220	6	right	414.65	1	1	1	1	1
Part_04	1	1	221	2	right	475.13	1	1	1	1	1
Part_04	1	1	222	8	right	425.15	1	1	1	1	1
Part_04	1	1	223	9	left	429.63	1	1	1	1	1
Part_04	1	1	224	8	right	447.46	1	1	1	1	1
Part_04	1	1	225	4	right	404.52	1	1	1	1	1
Part_04	1	1	226	3	left	531.22	1	1	1	1	1
Part_04	1	1	227	1	left	426.69	1	1	1	1	1
Part_04	1	1	228	6	right	650.58	1	1	1	1	1
Part_04	1	1	229	7	left	711.53	1	1	1	1	1
Part_04	1	1	230	6	right	464.29	1	1	1	1	1
Part_04	1	1	231	4	right	390.55	1	1	1	1	1
Part_04	1	1	232	6	right	440.82	1	1	1	1	1
Part_04	1	1	233	7	left	500.07	1	1	1	1	1
Part_04	1	1	234	4	right	509.22	1	1	1	1	1
Part_04	1	1	235	1	left	462.55	1	1	1	1	1
Part_04	1	1	236	4	right	427.23	1	1	1	1	1
Part_04	1	1	237	3	left	511.88	1	1	1	1	1
Part_04	1	1	238	2	right	490.83	1	1	1	1	1
Part_04	1	1	239	9	left	779.46	1	1	1	1	1
Part_04	1	1	240	3	left	574.07	1	1	1	1	1
Part_04	1	9	11	6	left	992.73	0	1	0	0	0
Part_04	1	9	11	4	left	542.33	0	1	0	0	0
Part_04	1	9	11	4	left	369.76	0	1	0	0	0
Part_04	1	9	11	8	left	414.07	0	1	0	0	0
Part_04	1	9	11	7	right	382.08	0	1	0	0	0
Part_04	1	9	11	3	right	327.87	0	1	0	0	0
Part_04	1	9	11	6	left	460.76	0	1	0	0	0
Part_04	1	9	11	8	left	669.27	0	1	0	0	0
Part_04	1	9	11	2	left	470.12	0	1	0	0	0
Part_04	1	9	11	3	right	599.71	0	1	0	0	0
Part_04	1	9	11	9	right	451.26	0	1	0	0	0
Part_04	1	9	11	1	right	436.62	0	1	0	0	0
Part_04	1	9	11	1	right	405.79	0	1	0	0	0
Part_04	1	9	11	7	right	945.31	0	1	0	0	0
Part_04	1	9	11	2	left	657.04	0	1	0	0	0
Part_04	1	9	11	9	right	490.32	0	1	0	0	0
Part_04	1	2	1	8	left	425.05	1	1	1	1	1
Part_04	1	2	2	3	right	699.98	1	1	1	1	1
Part_04	1	2	3	4	left	639.91	1	1	1	1	1
Part_04	1	2	4	1	right	694.38	1	1	1	1	1
Part_04	1	2	5	3	right	441.68	1	1	1	1	1
Part_04	1	2	6	7	right	501.72	1	1	1	1	1
Part_04	1	2	7	9	right	630.44	1	1	1	1	1
Part_04	1	2	8	1	right	482.21	1	1	1	1	1
Part_04	1	2	9	9	right	534.99	1	1	1	1	1
Part_04	1	2	10	1	right	376.65	1	1	1	1	1
Part_04	1	2	11	8	left	560.01	1	1	1	1	1
Part_04	1	2	12	1	right	409.49	1	1	1	1	1
Part_04	1	2	13	8	left	1655.36	1	1	1	1	0
Part_04	1	2	14	4	left	468.15	1	1	1	1	1
Part_04	1	2	15	2	left	1061.52	1	1	1	1	0
Part_04	1	2	16	9	right	414.73	1	1	1	1	1
Part_04	1	2	17	6	left	405.02	1	1	1	1	1
Part_04	1	2	18	4	left	433.12	1	1	1	1	1
Part_04	1	2	19	8	left	514.59	1	1	1	1	1
Part_04	1	2	20	6	left	-2000	1	0	0	0	0
Part_04	1	2	21	7	right	702.96	1	1	1	1	1
Part_04	1	2	22	9	right	411.12	1	1	1	1	1
Part_04	1	2	23	1	right	1322.16	1	1	1	1	0
Part_04	1	2	24	7	right	546.34	1	1	1	1	1
Part_04	1	2	25	4	left	457.03	1	1	1	1	1
Part_04	1	2	26	3	right	380.66	1	1	1	1	1
Part_04	1	2	27	2	left	372.27	1	1	1	1	1
Part_04	1	2	28	7	right	751.77	1	1	1	1	1
Part_04	1	2	29	8	left	423.8	1	1	1	1	1
Part_04	1	2	30	2	left	476.28	1	1	1	1	1
Part_04	1	2	31	4	left	457.48	1	1	1	1	1
Part_04	1	2	32	9	right	-843.97	1	0	0	0	0
Part_04	1	2	33	8	left	965.53	1	1	1	1	0
Part_04	1	2	34	3	right	484.23	1	1	1	1	1
Part_04	1	2	35	4	left	430.37	1	1	1	1	1
Part_04	1	2	36	4	left	369.52	1	1	1	1	1
Part_04	1	2	37	4	left	832.07	1	1	1	1	0
Part_04	1	2	38	3	right	454	1	1	1	1	1
Part_04	1	2	39	9	right	412.09	1	1	1	1	1
Part_04	1	2	40	4	left	390.34	1	1	1	1	1
Part_04	1	2	41	4	left	468.1	1	1	1	1	1
Part_04	1	2	42	8	left	399.42	1	1	1	1	1
Part_04	1	2	43	7	right	544.42	1	1	1	1	1
Part_04	1	2	44	9	right	431.14	1	1	1	1	1
Part_04	1	2	45	3	right	804.73	1	1	1	1	0
Part_04	1	2	46	6	left	978.19	1	1	1	1	0
Part_04	1	2	47	3	right	636.24	1	1	1	1	1
Part_04	1	2	48	8	left	484.81	1	1	1	1	1
Part_04	1	2	49	1	right	630.77	1	1	1	1	1
Part_04	1	2	50	3	right	411.68	1	1	1	1	1
Part_04	1	2	51	2	left	543.9	1	1	1	1	1
Part_04	1	2	52	4	left	398.49	1	1	1	1	1
Part_04	1	2	53	2	left	537.04	1	1	1	1	1
Part_04	1	2	54	1	right	453.74	1	1	1	1	1
Part_04	1	2	55	3	right	441.24	1	1	1	1	1
Part_04	1	2	56	1	right	405.24	1	1	1	1	1
Part_04	1	2	57	7	right	335.44	1	1	1	1	1
Part_04	1	2	58	7	right	411.91	1	1	1	1	1
Part_04	1	2	59	2	left	466.36	1	1	1	1	1
Part_04	1	2	60	8	left	435.27	1	1	1	1	1
Part_04	1	2	61	1	right	416.42	1	1	1	1	1
Part_04	1	2	62	9	right	518.58	1	1	1	1	1
Part_04	1	2	63	2	left	707.13	1	1	1	1	1
Part_04	1	2	64	2	left	480.52	1	1	1	1	1
Part_04	1	2	65	9	right	-684.77	1	0	0	0	0
Part_04	1	2	66	3	right	959.57	1	1	1	1	0
Part_04	1	2	67	9	right	409.64	1	1	1	1	1
Part_04	1	2	68	8	left	466.73	1	1	1	1	1
Part_04	1	2	69	4	left	-355.09	1	0	0	0	0
Part_04	1	2	70	1	right	392.25	1	1	1	1	1
Part_04	1	2	71	7	right	1497.01	1	1	1	1	0
Part_04	1	2	72	8	left	714.02	1	1	1	1	1
Part_04	1	2	73	7	right	392.58	1	1	1	1	1
Part_04	1	2	74	6	left	502.81	1	1	1	1	1
Part_04	1	2	75	1	right	1811.5	1	1	1	1	0
Part_04	1	2	76	3	right	1338.04	1	1	1	1	0
Part_04	1	2	77	3	right	499.8	1	1	1	1	1
Part_04	1	2	78	6	left	634.98	1	1	1	1	1
Part_04	1	2	79	9	right	-735.15	1	0	0	0	0
Part_04	1	2	80	6	left	382.82	1	1	1	1	1
Part_04	1	2	81	4	left	549.64	1	1	1	1	1
Part_04	1	2	82	2	left	408.87	1	1	1	1	1
Part_04	1	2	83	9	right	481.25	1	1	1	1	1
Part_04	1	2	84	2	left	540.52	1	1	1	1	1
Part_04	1	2	85	2	left	316.61	1	1	1	1	1
Part_04	1	2	86	2	left	394.92	1	1	1	1	1
Part_04	1	2	87	3	right	460.14	1	1	1	1	1
Part_04	1	2	88	1	right	392.12	1	1	1	1	1
Part_04	1	2	89	2	left	430.36	1	1	1	1	1
Part_04	1	2	90	4	left	369.98	1	1	1	1	1
Part_04	1	2	91	7	right	487.44	1	1	1	1	1
Part_04	1	2	92	8	left	440.26	1	1	1	1	1
Part_04	1	2	93	6	left	459.69	1	1	1	1	1
Part_04	1	2	94	3	right	436.44	1	1	1	1	1
Part_04	1	2	95	2	left	471.1	1	1	1	1	1
Part_04	1	2	96	6	left	290.03	1	1	1	1	1
Part_04	1	2	97	9	right	750.28	1	1	1	1	1
Part_04	1	2	98	8	left	936.03	1	1	1	1	0
Part_04	1	2	99	6	left	606.46	1	1	1	1	1
Part_04	1	2	100	8	left	407.4	1	1	1	1	1
Part_04	1	2	101	8	left	506.31	1	1	1	1	1
Part_04	1	2	102	8	left	-406.6	1	0	0	0	0
Part_04	1	2	103	7	right	405.93	1	1	1	1	1
Part_04	1	2	104	4	left	484.27	1	1	1	1	1
Part_04	1	2	105	9	right	335.34	1	1	1	1	1
Part_04	1	2	106	4	left	389.55	1	1	1	1	1
Part_04	1	2	107	2	left	415.24	1	1	1	1	1
Part_04	1	2	108	3	right	373.53	1	1	1	1	1
Part_04	1	2	109	7	right	540.9	1	1	1	1	1
Part_04	1	2	110	4	left	380.32	1	1	1	1	1
Part_04	1	2	111	3	right	706.99	1	1	1	1	1
Part_04	1	2	112	9	right	500.15	1	1	1	1	1
Part_04	1	2	113	6	left	635.01	1	1	1	1	1
Part_04	1	2	114	3	right	1078.46	1	1	1	1	0
Part_04	1	2	115	2	left	402.73	1	1	1	1	1
Part_04	1	2	116	8	left	378.53	1	1	1	1	1
Part_04	1	2	117	3	right	457.16	1	1	1	1	1
Part_04	1	2	118	9	right	434.61	1	1	1	1	1
Part_04	1	2	119	4	left	653.91	1	1	1	1	1
Part_04	1	2	120	9	right	467.75	1	1	1	1	1
Part_04	1	2	121	4	left	377.54	1	1	1	1	1
Part_04	1	2	122	3	right	498.02	1	1	1	1	1
Part_04	1	2	123	1	right	1174.2	1	1	1	1	0
Part_04	1	2	124	2	left	-424.24	1	0	0	0	0
Part_04	1	2	125	6	left	614.79	1	1	1	1	1
Part_04	1	2	126	1	right	679.9	1	1	1	1	1
Part_04	1	2	127	4	left	662.06	1	1	1	1	1
Part_04	1	2	128	1	right	461.13	1	1	1	1	1
Part_04	1	2	129	4	left	771.44	1	1	1	1	1
Part_04	1	2	130	2	left	408.45	1	1	1	1	1
Part_04	1	2	131	1	right	424.05	1	1	1	1	1
Part_04	1	2	132	6	left	611.24	1	1	1	1	1
Part_04	1	2	133	7	right	467.37	1	1	1	1	1
Part_04	1	2	134	7	right	487.75	1	1	1	1	1
Part_04	1	2	135	7	right	466.31	1	1	1	1	1
Part_04	1	2	136	1	right	421.88	1	1	1	1	1
Part_04	1	2	137	7	right	405.66	1	1	1	1	1
Part_04	1	2	138	7	right	542.82	1	1	1	1	1
Part_04	1	2	139	1	right	437.08	1	1	1	1	1
Part_04	1	2	140	3	right	666.19	1	1	1	1	1
Part_04	1	2	141	7	right	501.72	1	1	1	1	1
Part_04	1	2	142	9	right	401.74	1	1	1	1	1
Part_04	1	2	143	6	left	431.24	1	1	1	1	1
Part_04	1	2	144	6	left	417.48	1	1	1	1	1
Part_04	1	2	145	6	left	601.96	1	1	1	1	1
Part_04	1	2	146	3	right	425.37	1	1	1	1	1
Part_04	1	2	147	6	left	550.72	1	1	1	1	1
Part_04	1	2	148	3	right	512.8	1	1	1	1	1
Part_04	1	2	149	2	left	545.51	1	1	1	1	1
Part_04	1	2	150	4	left	870.56	1	1	1	1	0
Part_04	1	2	151	7	right	642.31	1	1	1	1	1
Part_04	1	2	152	7	right	546.97	1	1	1	1	1
Part_04	1	2	153	8	left	558.21	1	1	1	1	1
Part_04	1	2	154	8	left	548.77	1	1	1	1	1
Part_04	1	2	155	2	left	591.31	1	1	1	1	1
Part_04	1	2	156	1	right	1665.47	1	1	1	1	0
Part_04	1	2	157	4	left	396.85	1	1	1	1	1
Part_04	1	2	158	7	right	432.4	1	1	1	1	1
Part_04	1	2	159	3	right	430.39	1	1	1	1	1
Part_04	1	2	160	1	right	439.2	1	1	1	1	1
Part_04	1	2	161	1	right	513.42	1	1	1	1	1
Part_04	1	2	162	7	right	418.77	1	1	1	1	1
Part_04	1	2	163	4	left	438.96	1	1	1	1	1
Part_04	1	2	164	6	left	373.09	1	1	1	1	1
Part_04	1	2	165	2	left	870.53	1	1	1	1	0
Part_04	1	2	166	9	right	441.22	1	1	1	1	1
Part_04	1	2	167	1	right	-2000	1	0	0	0	0
Part_04	1	2	168	4	left	403.46	1	1	1	1	1
Part_04	1	2	169	9	right	846.74	1	1	1	1	0
Part_04	1	2	170	2	left	636.54	1	1	1	1	1
Part_04	1	2	171	6	left	510.45	1	1	1	1	1
Part_04	1	2	172	7	right	465.29	1	1	1	1	1
Part_04	1	2	173	8	left	371.11	1	1	1	1	1
Part_04	1	2	174	1	right	855.93	1	1	1	1	0
Part_04	1	2	175	9	right	469.92	1	1	1	1	1
Part_04	1	2	176	7	right	400.5	1	1	1	1	1
Part_04	1	2	177	2	left	981.63	1	1	1	1	0
Part_04	1	2	178	9	right	464.29	1	1	1	1	1
Part_04	1	2	179	4	left	525.86	1	1	1	1	1
Part_04	1	2	180	8	left	595.06	1	1	1	1	1
Part_04	1	2	181	4	left	456.81	1	1	1	1	1
Part_04	1	2	182	1	right	374.94	1	1	1	1	1
Part_04	1	2	183	8	left	561.25	1	1	1	1	1
Part_04	1	2	184	9	right	1070.31	1	1	1	1	0
Part_04	1	2	185	2	left	499.68	1	1	1	1	1
Part_04	1	2	186	2	left	796.63	1	1	1	1	0
Part_04	1	2	187	8	left	-537.26	1	0	0	0	0
Part_04	1	2	188	6	left	597.56	1	1	1	1	1
Part_04	1	2	189	6	left	1015.9	1	1	1	1	0
Part_04	1	2	190	4	left	672.23	1	1	1	1	1
Part_04	1	2	191	7	right	663.44	1	1	1	1	1
Part_04	1	2	192	6	left	420.2	1	1	1	1	1
Part_04	1	2	193	8	left	-609.68	1	0	0	0	0
Part_04	1	2	194	9	right	647.9	1	1	1	1	1
Part_04	1	2	195	6	left	437.83	1	1	1	1	1
Part_04	1	2	196	9	right	473.13	1	1	1	1	1
Part_04	1	2	197	7	right	722.03	1	1	1	1	1
Part_04	1	2	198	3	right	1308.39	1	1	1	1	0
Part_04	1	2	199	3	right	455.07	1	1	1	1	1
Part_04	1	2	200	4	left	627.44	1	1	1	1	1
Part_04	1	2	201	9	right	434.99	1	1	1	1	1
Part_04	1	2	202	3	right	403.16	1	1	1	1	1
Part_04	1	2	203	9	right	-455.44	1	0	0	0	0
Part_04	1	2	204	8	left	529.98	1	1	1	1	1
Part_04	1	2	205	3	right	1752.49	1	1	1	1	0
Part_04	1	2	206	2	left	875.7	1	1	1	1	0
Part_04	1	2	207	6	left	399.38	1	1	1	1	1
Part_04	1	2	208	3	right	737.08	1	1	1	1	1
Part_04	1	2	209	8	left	1134.42	1	1	1	1	0
Part_04	1	2	210	8	left	511.08	1	1	1	1	1
Part_04	1	2	211	7	right	454.36	1	1	1	1	1
Part_04	1	2	212	7	right	346.19	1	1	1	1	1
Part_04	1	2	213	3	right	410.64	1	1	1	1	1
Part_04	1	2	214	6	left	912.35	1	1	1	1	0
Part_04	1	2	215	1	right	473.46	1	1	1	1	1
Part_04	1	2	216	9	right	522.24	1	1	1	1	1
Part_04	1	2	217	6	left	638.52	1	1	1	1	1
Part_04	1	2	218	2	left	780.2	1	1	1	1	1
Part_04	1	2	219	3	right	372.98	1	1	1	1	1
Part_04	1	2	220	1	right	447.2	1	1	1	1	1
Part_04	1	2	221	1	right	617.07	1	1	1	1	1
Part_04	1	2	222	1	right	419.12	1	1	1	1	1
Part_04	1	2	223	2	left	456.41	1	1	1	1	1
Part_04	1	2	224	6	left	391.47	1	1	1	1	1
Part_04	1	2	225	8	left	812.46	1	1	1	1	0
Part_04	1	2	226	4	left	898.57	1	1	1	1	0
Part_04	1	2	227	9	right	838.97	1	1	1	1	0
Part_04	1	2	228	9	right	920.44	1	1	1	1	0
Part_04	1	2	229	7	right	365.23	1	1	1	1	1
Part_04	1	2	230	2	left	385.51	1	1	1	1	1
Part_04	1	2	231	6	left	371.47	1	1	1	1	1
Part_04	1	2	232	7	right	647.91	1	1	1	1	1
Part_04	1	2	233	6	left	395.96	1	1	1	1	1
Part_04	1	2	234	8	left	677.21	1	1	1	1	1
Part_04	1	2	235	2	left	379.44	1	1	1	1	1
Part_04	1	2	236	6	left	534.94	1	1	1	1	1
Part_04	1	2	237	1	right	755.88	1	1	1	1	1
Part_04	1	2	238	1	right	498.63	1	1	1	1	1
Part_04	1	2	239	8	left	1846.93	1	1	1	1	0
Part_04	1	2	240	6	left	579.03	1	1	1	1	1
Part_05	1	8	11	4	right	1452.7	0	1	0	0	0
Part_05	1	8	11	3	left	781.87	0	1	0	0	0
Part_05	1	8	11	2	right	1099.81	0	1	0	0	0
Part_05	1	8	11	9	left	998.19	0	1	0	0	0
Part_05	1	8	11	8	right	487.86	0	1	0	0	0
Part_05	1	8	11	1	left	875.93	0	1	0	0	0
Part_05	1	8	11	7	left	770.07	0	1	0	0	0
Part_05	1	8	11	4	right	608.97	0	1	0	0	0
Part_05	1	8	11	6	right	527.62	0	1	0	0	0
Part_05	1	8	11	8	right	935.92	0	1	0	0	0
Part_05	1	8	11	2	right	635.37	0	1	0	0	0
Part_05	1	8	11	9	left	654.47	0	1	0	0	0
Part_05	1	8	11	6	right	830.23	0	1	0	0	0
Part_05	1	8	11	3	left	692	0	1	0	0	0
Part_05	1	8	11	1	left	692.19	0	1	0	0	0
Part_05	1	8	11	7	left	569.76	0	1	0	0	0
Part_05	1	1	1	4	right	553.94	1	1	1	1	1
Part_05	1	1	2	1	left	756.62	1	1	1	1	1
Part_05	1	1	3	6	right	555.78	1	1	1	1	1
Part_05	1	1	4	4	right	457.98	1	1	1	1	1
Part_05	1	1	5	1	left	736.47	1	1	1	1	1
Part_05	1	1	6	2	right	624.21	1	1	1	1	1
Part_05	1	1	7	3	left	553.57	1	1	1	1	1
Part_05	1	1	8	9	left	-572.77	1	0	0	0	0
Part_05	1	1	9	1	left	557.5	1	1	1	1	1
Part_05	1	1	10	7	left	698.2	1	1	1	1	1
Part_05	1	1	11	9	left	546.98	1	1	1	1	1
Part_05	1	1	12	2	right	716.28	1	1	1	1	1
Part_05	1	1	13	8	right	509.83	1	1	1	1	1
Part_05	1	1	14	2	right	590.83	1	1	1	1	1
Part_05	1	1	15	3	left	603.7	1	1	1	1	1
Part_05	1	1	16	2	right	514.73	1	1	1	1	1
Part_05	1	1	17	9	left	595.36	1	1	1	1	1
Part_05	1	1	18	2	right	728.92	1	1	1	1	1
Part_05	1	1	19	7	left	594.63	1	1	1	1	1
Part_05	1	1	20	9	left	622.46	1	1	1	1	1
Part_05	1	1	21	8	right	564.53	1	1	1	1	1
Part_05	1	1	22	6	right	463.91	1	1	1	1	1
Part_05	1	1	23	3	left	716.93	1	1	1	1	1
Part_05	1	1	24	2	right	554.06	1	1	1	1	1
Part_05	1	1	25	3	left	1145.77	1	1	1	1	0
Part_05	1	1	26	2	right	567.41	1	1	1	1	1
Part_05	1	1	27	8	right	579.57	1	1	1	1	1
Part_05	1	1	28	3	left	504.97	1	1	1	1	1
Part_05	1	1	29	8	right	489.8	1	1	1	1	1
Part_05	1	1	30	6	right	652.14	1	1	1	1	1
Part_05	1	1	31	7	left	582.43	1	1	1	1	1
Part_05	1	1	32	4	right	616.69	1	1	1	1	1
Part_05	1	1	33	8	right	459.22	1	1	1	1	1
Part_05	1	1	34	9	left	471	1	1	1	1	1
Part_05	1	1	35	8	right	595.66	1	1	1	1	1
Part_05	1	1	36	8	right	503.32	1	1	1	1	1
Part_05	1	1	37	7	left	982.62	1	1	1	1	1
Part_05	1	1	38	7	left	551.08	1	1	1	1	1
Part_05	1	1	39	8	right	530.7	1	1	1	1	1
Part_05	1	1	40	3	left	512.99	1	1	1	1	1
Part_05	1	1	41	8	right	619.37	1	1	1	1	1
Part_05	1	1	42	2	right	-1108.86	1	0	0	0	0
Part_05	1	1	43	4	right	1062.58	1	1	1	1	0
Part_05	1	1	44	2	right	564.18	1	1	1	1	1
Part_05	1	1	45	6	right	553.43	1	1	1	1	1
Part_05	1	1	46	8	right	571.34	1	1	1	1	1
Part_05	1	1	47	9	left	803.36	1	1	1	1	1
Part_05	1	1	48	4	right	552.75	1	1	1	1	1
Part_05	1	1	49	1	left	650.32	1	1	1	1	1
Part_05	1	1	50	6	right	480.02	1	1	1	1	1
Part_05	1	1	51	1	left	529.31	1	1	1	1	1
Part_05	1	1	52	2	right	466.09	1	1	1	1	1
Part_05	1	1	53	4	right	553.77	1	1	1	1	1
Part_05	1	1	54	7	left	658.06	1	1	1	1	1
Part_05	1	1	55	6	right	528.77	1	1	1	1	1
Part_05	1	1	56	8	right	469.03	1	1	1	1	1
Part_05	1	1	57	3	left	588.7	1	1	1	1	1
Part_05	1	1	58	7	left	582.26	1	1	1	1	1
Part_05	1	1	59	4	right	811.49	1	1	1	1	1
Part_05	1	1	60	7	left	1214.63	1	1	1	1	0
Part_05	1	1	61	2	right	576.96	1	1	1	1	1
Part_05	1	1	62	9	left	553.39	1	1	1	1	1
Part_05	1	1	63	2	right	437.9	1	1	1	1	1
Part_05	1	1	64	7	left	623.25	1	1	1	1	1
Part_05	1	1	65	7	left	602.98	1	1	1	1	1
Part_05	1	1	66	6	right	559.29	1	1	1	1	1
Part_05	1	1	67	2	right	608.14	1	1	1	1	1
Part_05	1	1	68	8	right	492.24	1	1	1	1	1
Part_05	1	1	69	9	left	558.98	1	1	1	1	1
Part_05	1	1	70	2	right	453.85	1	1	1	1	1
Part_05	1	1	71	3	left	643.47	1	1	1	1	1
Part_05	1	1	72	3	left	506.03	1	1	1	1	1
Part_05	1	1	73	8	right	458.79	1	1	1	1	1
Part_05	1	1	74	9	left	780.99	1	1	1	1	1
Part_05	1	1	75	2	right	522.58	1	1	1	1	1
Part_05	1	1	76	6	right	446.13	1	1	1	1	1
Part_05	1	1	77	9	left	526.18	1	1	1	1	1
Part_05	1	1	78	4	right	535.77	1	1	1	1	1
Part_05	1	1	79	8	right	535.98	1	1	1	1	1
Part_05	1	1	80	8	right	352.65	1	1	1	1	1
Part_05	1	1	81	8	right	492.42	1	1	1	1	1
Part_05	1	1	82	7	left	411.9	1	1	1	1	1
Part_05	1	1	83	2	right	747.71	1	1	1	1	1
Part_05	1	1	84	6	right	761.01	1	1	1	1	1
Part_05	1	1	85	3	left	599.39	1	1	1	1	1
Part_05	1	1	86	1	left	473.34	1	1	1	1	1
Part_05	1	1	87	6	right	669.28	1	1	1	1	1
Part_05	1	1	88	6	right	538.39	1	1	1	1	1
Part_05	1	1	89	6	right	919.79	1	1	1	1	1
Part_05	1	1	90	6	right	434.05	1	1	1	1	1
Part_05	1	1	91	8	right	544.76	1	1	1	1	1
Part_05	1	1	92	8	right	617.09	1	1	1	1	1
Part_05	1	1	93	6	right	599.13	1	1	1	1	1
Part_05	1	1	94	9	left	-466.44	1	0	0	0	0
Part_05	1	1	95	1	left	490	1	1	1	1	1
Part_05	1	1	96	9	left	624.03	1	1	1	1	1
Part_05	1	1	97	6	right	576.72	1	1	1	1	1
Part_05	1	1	98	7	left	611.06	1	1	1	1	1
Part_05	1	1	99	7	left	538.2	1	1	1	1	1
Part_05	1	1	100	6	right	560.98	1	1	1	1	1
Part_05	1	1	101	7	left	911.35	1	1	1	1	1
Part_05	1	1	102	9	left	514.8	1	1	1	1	1
Part_05	1	1	103	8	right	436.7	1	1	1	1	1
Part_05	1	1	104	3	left	746.47	1	1	1	1	1
Part_05	1	1	105	9	left	632.08	1	1	1	1	1
Part_05	1	1	106	8	right	518.5	1	1	1	1	1
Part_05	1	1	107	1	left	522.9	1	1	1	1	1
Part_05	1	1	108	1	left	586.23	1	1	1	1	1
Part_05	1	1	109	6	right	498.32	1	1	1	1	1
Part_05	1	1	110	4	right	521.79	1	1	1	1	1
Part_05	1	1	111	8	right	441.36	1	1	1	1	1
Part_05	1	1	112	9	left	912.95	1	1	1	1	1
Part_05	1	1	113	9	left	633.22	1	1	1	1	1
Part_05	1	1	114	6	right	531.56	1	1	1	1	1
Part_05	1	1	115	2	right	454.94	1	1	1	1	1
Part_05	1	1	116	1	left	529.05	1	1	1	1	1
Part_05	1	1	117	2	right	1355.2	1	1	1	1	0
Part_05	1	1	118	7	left	459.88	1	1	1	1	1
Part_05	1	1	119	6	right	460.04	1	1	1	1	1
Part_05	1	1	120	3	left	-532.16	1	0	0	0	0
Part_05	1	1	121	3	left	570.46	1	1	1	1	1
Part_05	1	1	122	9	left	704.23	1	1	1	1	1
Part_05	1	1	123	8	right	467.11	1	1	1	1	1
Part_05	1	1	124	2	right	664.99	1	1	1	1	1
Part_05	1	1	125	4	right	512.84	1	1	1	1	1
Part_05	1	1	126	2	right	661.08	1	1	1	1	1
Part_05	1	1	127	4	right	519.83	1	1	1	1	1
Part_05	1	1	128	4	right	710.81	1	1	1	1	1
Part_05	1	1	129	7	left	615.16	1	1	1	1	1
Part_05	1	1	130	6	right	513.35	1	1	1	1	1
Part_05	1	1	131	3	left	-492.51	1	0	0	0	0
Part_05	1	1	132	8	right	533.33	1	1	1	1	1
Part_05	1	1	133	7	left	558.56	1	1	1	1	1
Part_05	1	1	134	4	right	681.88	1	1	1	1	1
Part_05	1	1	135	8	right	602.04	1	1	1	1	1
Part_05	1	1	136	4	right	951.96	1	1	1	1	1
Part_05	1	1	137	7	left	-416.57	1	0	0	0	0
Part_05	1	1	138	3	left	796.37	1	1	1	1	1
Part_05	1	1	139	7	left	544.51	1	1	1	1	1
Part_05	1	1	140	3	left	756.21	1	1	1	1	1
Part_05	1	1	141	6	right	411.62	1	1	1	1	1
Part_05	1	1	142	3	left	886.77	1	1	1	1	1
Part_05	1	1	143	2	right	576.31	1	1	1	1	1
Part_05	1	1	144	4	right	1143.72	1	1	1	1	0
Part_05	1	1	145	4	right	554.92	1	1	1	1	1
Part_05	1	1	146	9	left	874.32	1	1	1	1	1
Part_05	1	1	147	8	right	465.49	1	1	1	1	1
Part_05	1	1	148	7	left	541.05	1	1	1	1	1
Part_05	1	1	149	1	left	544.55	1	1	1	1	1
Part_05	1	1	150	1	left	478.78	1	1	1	1	1
Part_05	1	1	151	1	left	431.49	1	1	1	1	1
Part_05	1	1	152	1	left	490.76	1	1	1	1	1
Part_05	1	1	153	3	left	499.3	1	1	1	1	1
Part_05	1	1	154	6	right	564.34	1	1	1	1	1
Part_05	1	1	155	2	right	480.7	1	1	1	1	1
Part_05	1	1	156	3	left	718.64	1	1	1	1	1
Part_05	1	1	157	7	left	726.36	1	1	1	1	1
Part_05	1	1	158	1	left	487.71	1	1	1	1	1
Part_05	1	1	159	4	right	773.76	1	1	1	1	1
Part_05	1	1	160	7	left	776.75	1	1	1	1	1
Part_05	1	1	161	9	left	603.23	1	1	1	1	1
Part_05	1	1	162	4	right	992.29	1	1	1	1	0
Part_05	1	1	163	9	left	972.94	1	1	1	1	1
Part_05	1	1	164	4	right	-539.71	1	0	0	0	0
Part_05	1	1	165	7	left	643.99	1	1	1	1	1
Part_05	1	1	166	7	left	630.03	1	1	1	1	1
Part_05	1	1	167	1	left	483.26	1	1	1	1	1
Part_05	1	1	168	4	right	665.73	1	1	1	1	1
Part_05	1	1	169	1	left	561.77	1	1	1	1	1
Part_05	1	1	170	2	right	443.11	1	1	1	1	1
Part_05	1	1	171	4	right	801.09	1	1	1	1	1
Part_05	1	1	172	8	right	852.7	1	1	1	1	1
Part_05	1	1	173	8	right	395.07	1	1	1	1	1
Part_05	1	1	174	1	left	631.1	1	1	1	1	1
Part_05	1	1	175	8	right	482.5	1	1	1	1	1
Part_05	1	1	176	3	left	-516.24	1	0	0	0	0
Part_05	1	1	177	7	left	612.01	1	1	1	1	1
Part_05	1	1	178	4	right	-577.28	1	0	0	0	0
Part_05	1	1	179	9	left	779.77	1	1	1	1	1
Part_05	1	1	180	6	right	505.76	1	1	1	1	1
Part_05	1	1	181	9	left	-566.22	1	0	0	0	0
Part_05	1	1	182	1	left	673.51	1	1	1	1	1
Part_05	1	1	183	1	left	563.49	1	1	1	1	1
Part_05	1	1	184	6	right	524.2	1	1	1	1	1
Part_05	1	1	185	9	left	527.08	1	1	1	1	1
Part_05	1	1	186	1	left	521.96	1	1	1	1	1
Part_05	1	1	187	9	left	880.81	1	1	1	1	1
Part_05	1	1	188	4	right	1105.72	1	1	1	1	0
Part_05	1	1	189	6	right	546.22	1	1	1	1	1
Part_05	1	1	190	7	left	646.66	1	1	1	1	1
Part_05	1	1	191	3	left	659.56	1	1	1	1	1
Part_05	1	1	192	4	right	497.17	1	1	1	1	1
Part_05	1	1	193	1	left	948.32	1	1	1	1	1
Part_05	1	1	194	3	left	565.61	1	1	1	1	1
Part_05	1	1	195	7	left	476.29	1	1	1	1	1
Part_05	1	1	196	2	right	435.44	1	1	1	1	1
Part_05	1	1	197	9	left	556.07	1	1	1	1	1
Part_05	1	1	198	2	right	471.47	1	1	1	1	1
Part_05	1	1	199	7	left	530.04	1	1	1	1	1
Part_05	1	1	200	2	right	-449.36	1	0	0	0	0
Part_05	1	1	201	6	right	541.53	1	1	1	1	1
Part_05	1	1	202	4	right	407.58	1	1	1	1	1
Part_05	1	1	203	4	right	493.63	1	1	1	1	1
Part_05	1	1	204	2	right	486.91	1	1	1	1	1
Part_05	1	1	205	2	right	603.07	1	1	1	1	1
Part_05	1	1	206	2	right	491.2	1	1	1	1	1
Part_05	1	1	207	1	left	492.7	1	1	1	1	1
Part_05	1	1	208	1	left	628.43	1	1	1	1	1
Part_05	1	1	209	7	left	961.05	1	1	1	1	1
Part_05	1	1	210	6	right	685.36	1	1	1	1	1
Part_05	1	1	211	3	left	789.11	1	1	1	1	1
Part_05	1	1	212	1	left	606.81	1	1	1	1	1
Part_05	1	1	213	1	left	529.86	1	1	1	1	1
Part_05	1	1	214	2	right	693.12	1	1	1	1	1
Part_05	1	1	215	6	right	506.7	1	1	1	1	1
Part_05	1	1	216	4	right	558.1	1	1	1	1	1
Part_05	1	1	217	9	left	865.78	1	1	1	1	1
Part_05	1	1	218	6	right	816.32	1	1	1	1	1
Part_05	1	1	219	9	left	532.53	1	1	1	1	1
Part_05	1	1	220	6	right	477.37	1	1	1	1	1
Part_05	1	1	221	1	left	612.7	1	1	1	1	1
Part_05	1	1	222	3	left	681.07	1	1	1	1	1
Part_05	1	1	223	1	left	841.27	1	1	1	1	1
Part_05	1	1	224	4	right	649.67	1	1	1	1	1
Part_05	1	1	225	3	left	547.83	1	1	1	1	1
Part_05	1	1	226	9	left	665.92	1	1	1	1	1
Part_05	1	1	227	1	left	689.14	1	1	1	1	1
Part_05	1	1	228	3	left	922.9	1	1	1	1	1
Part_05	1	1	229	3	left	689.68	1	1	1	1	1
Part_05	1	1	230	7	left	603.81	1	1	1	1	1
Part_05	1	1	231	3	left	612.98	1	1	1	1	1
Part_05	1	1	232	9	left	1069.03	1	1	1	1	0
Part_05	1	1	233	4	right	577.93	1	1	1	1	1
Part_05	1	1	234	9	left	553.54	1	1	1	1	1
Part_05	1	1	235	3	left	553.27	1	1	1	1	1
Part_05	1	1	236	8	right	519.15	1	1	1	1	1
Part_05	1	1	237	4	right	486.63	1	1	1	1	1
Part_05	1	1	238	8	right	644.41	1	1	1	1	1
Part_05	1	1	239	1	left	497.34	1	1	1	1	1
Part_05	1	1	240	3	left	766.91	1	1	1	1	1
Part_05	1	9	11	7	right	1374.08	0	1	0	0	0
Part_05	1	9	11	2	left	816.39	0	1	0	0	0
Part_05	1	9	11	3	right	596.01	0	1	0	0	0
Part_05	1	9	11	9	right	1024.51	0	1	0	0	0
Part_05	1	9	11	8	left	725.29	0	1	0	0	0
Part_05	1	9	11	9	right	597.78	0	1	0	0	0
Part_05	1	9	11	1	right	602.14	0	1	0	0	0
Part_05	1	9	11	8	left	580.45	0	1	0	0	0
Part_05	1	9	11	2	left	-611.04	0	0	0	0	0
Part_05	1	9	11	6	left	656.88	0	1	0	0	0
Part_05	1	9	11	3	right	1339.16	0	1	0	0	0
Part_05	1	9	11	4	left	653.61	0	1	0	0	0
Part_05	1	9	11	1	right	634.43	0	1	0	0	0
Part_05	1	9	11	6	left	-479.02	0	0	0	0	0
Part_05	1	9	11	7	right	-687.73	0	0	0	0	0
Part_05	1	9	11	4	left	-535.74	0	0	0	0	0
Part_05	1	2	1	6	left	621.34	1	1	1	1	1
Part_05	1	2	2	9	right	459.71	1	1	1	1	1
Part_05	1	2	3	7	right	496.76	1	1	1	1	1
Part_05	1	2	4	7	right	1167.64	1	1	1	1	0
Part_05	1	2	5	8	left	528.67	1	1	1	1	1
Part_05	1	2	6	6	left	591.21	1	1	1	1	1
Part_05	1	2	7	8	left	673.05	1	1	1	1	1
Part_05	1	2	8	4	left	819.14	1	1	1	1	1
Part_05	1	2	9	7	right	490.58	1	1	1	1	1
Part_05	1	2	10	3	right	562.34	1	1	1	1	1
Part_05	1	2	11	7	right	485.8	1	1	1	1	1
Part_05	1	2	12	7	right	692.33	1	1	1	1	1
Part_05	1	2	13	7	right	-648.14	1	0	0	0	0
Part_05	1	2	14	1	right	449.19	1	1	1	1	1
Part_05	1	2	15	1	right	664.01	1	1	1	1	1
Part_05	1	2	16	9	right	498.73	1	1	1	1	1
Part_05	1	2	17	7	right	646.46	1	1	1	1	1
Part_05	1	2	18	7	right	388.89	1	1	1	1	1
Part_05	1	2	19	1	right	491.35	1	1	1	1	1
Part_05	1	2	20	8	left	615.6	1	1	1	1	1
Part_05	1	2	21	8	left	760.07	1	1	1	1	1
Part_05	1	2	22	3	right	717.46	1	1	1	1	1
Part_05	1	2	23	1	right	846.82	1	1	1	1	1
Part_05	1	2	24	2	left	721.16	1	1	1	1	1
Part_05	1	2	25	4	left	571.92	1	1	1	1	1
Part_05	1	2	26	3	right	-969.83	1	0	0	0	0
Part_05	1	2	27	3	right	713.33	1	1	1	1	1
Part_05	1	2	28	6	left	864.48	1	1	1	1	1
Part_05	1	2	29	9	right	500.5	1	1	1	1	1
Part_05	1	2	30	9	right	1198.89	1	1	1	1	0
Part_05	1	2	31	7	right	525.88	1	1	1	1	1
Part_05	1	2	32	3	right	537.16	1	1	1	1	1
Part_05	1	2	33	7	right	560.88	1	1	1	1	1
Part_05	1	2	34	7	right	627.92	1	1	1	1	1
Part_05	1	2	35	7	right	648.59	1	1	1	1	1
Part_05	1	2	36	4	left	677.68	1	1	1	1	1
Part_05	1	2	37	1	right	-499.79	1	0	0	0	0
Part_05	1	2	38	8	left	656.18	1	1	1	1	1
Part_05	1	2	39	4	left	552.17	1	1	1	1	1
Part_05	1	2	40	3	right	699.53	1	1	1	1	1
Part_05	1	2	41	8	left	960.58	1	1	1	1	1
Part_05	1	2	42	9	right	518.35	1	1	1	1	1
Part_05	1	2	43	8	left	544.42	1	1	1	1	1
Part_05	1	2	44	2	left	726.39	1	1	1	1	1
Part_05	1	2	45	2	left	503.42	1	1	1	1	1
Part_05	1	2	46	6	left	464.07	1	1	1	1	1
Part_05	1	2	47	4	left	594.31	1	1	1	1	1
Part_05	1	2	48	1	right	616.52	1	1	1	1	1
Part_05	1	2	49	3	right	544.75	1	1	1	1	1
Part_05	1	2	50	9	right	461	1	1	1	1	1
Part_05	1	2	51	6	left	-478.88	1	0	0	0	0
Part_05	1	2	52	1	right	502.06	1	1	1	1	1
Part_05	1	2	53	1	right	567.62	1	1	1	1	1
Part_05	1	2	54	8	left	791.12	1	1	1	1	1
Part_05	1	2	55	1	right	737.93	1	1	1	1	1
Part_05	1	2	56	2	left	-527.83	1	0	0	0	0
Part_05	1	2	57	4	left	511.76	1	1	1	1	1
Part_05	1	2	58	8	left	526.29	1	1	1	1	1
Part_05	1	2	59	2	left	-581.86	1	0	0	0	0
Part_05	1	2	60	6	left	505.54	1	1	1	1	1
Part_05	1	2	61	7	right	482.37	1	1	1	1	1
Part_05	1	2	62	6	left	790.05	1	1	1	1	1
Part_05	1	2	63	7	right	424.71	1	1	1	1	1
Part_05	1	2	64	4	left	815.53	1	1	1	1	1
Part_05	1	2	65	1	right	573.07	1	1	1	1	1
Part_05	1	2	66	9	right	582.96	1	1	1	1	1
Part_05	1	2	67	4	left	720.38	1	1	1	1	1
Part_05	1	2	68	1	right	1053.03	1	1	1	1	0
Part_05	1	2	69	6	left	559.43	1	1	1	1	1
Part_05	1	2	70	4	left	-547.33	1	0	0	0	0
Part_05	1	2	71	3	right	1110.4	1	1	1	1	0
Part_05	1	2	72	9	right	540.03	1	1	1	1	1
Part_05	1	2	73	7	right	561.95	1	1	1	1	1
Part_05	1	2	74	4	left	567.25	1	1	1	1	1
Part_05	1	2	75	8	left	510.2	1	1	1	1	1
Part_05	1	2	76	3	right	591.94	1	1	1	1	1
Part_05	1	2	77	1	right	486.04	1	1	1	1	1
Part_05	1	2	78	1	right	526.67	1	1	1	1	1
Part_05	1	2	79	1	right	762.11	1	1	1	1	1
Part_05	1	2	80	7	right	538.35	1	1	1	1	1
Part_05	1	2	81	6	left	579.82	1	1	1	1	1
Part_05	1	2	82	1	right	689.26	1	1	1	1	1
Part_05	1	2	83	7	right	425.2	1	1	1	1	1
Part_05	1	2	84	8	left	626.57	1	1	1	1	1
Part_05	1	2	85	3	right	661.32	1	1	1	1	1
Part_05	1	2	86	4	left	898.3	1	1	1	1	1
Part_05	1	2	87	9	right	596.81	1	1	1	1	1
Part_05	1	2	88	4	left	553.71	1	1	1	1	1
Part_05	1	2	89	9	right	616.23	1	1	1	1	1
Part_05	1	2	90	8	left	599	1	1	1	1	1
Part_05	1	2	91	4	left	694.29	1	1	1	1	1
Part_05	1	2	92	6	left	764.07	1	1	1	1	1
Part_05	1	2	93	4	left	685.81	1	1	1	1	1
Part_05	1	2	94	8	left	878.93	1	1	1	1	1
Part_05	1	2	95	4	left	569.09	1	1	1	1	1
Part_05	1	2	96	6	left	509.37	1	1	1	1	1
Part_05	1	2	97	6	left	718.51	1	1	1	1	1
Part_05	1	2	98	6	left	778.78	1	1	1	1	1
Part_05	1	2	99	4	left	1071.41	1	1	1	1	0
Part_05	1	2	100	2	left	512.27	1	1	1	1	1
Part_05	1	2	101	4	left	576.44	1	1	1	1	1
Part_05	1	2	102	7	right	495.51	1	1	1	1	1
Part_05	1	2	103	1	right	493.77	1	1	1	1	1
Part_05	1	2	104	9	right	650.91	1	1	1	1	1
Part_05	1	2	105	3	right	613.93	1	1	1	1	1
Part_05	1	2	106	9	right	640.47	1	1	1	1	1
Part_05	1	2	107	6	left	813.5	1	1	1	1	1
Part_05	1	2	108	2	left	887.42	1	1	1	1	1
Part_05	1	2	109	9	right	618.06	1	1	1	1	1
Part_05	1	2	110	8	left	576.82	1	1	1	1	1
Part_05	1	2	111	3	right	483.65	1	1	1	1	1
Part_05	1	2	112	3	right	942.24	1	1	1	1	1
Part_05	1	2	113	8	left	648.96	1	1	1	1	1
Part_05	1	2	114	1	right	-507.31	1	0	0	0	0
Part_05	1	2	115	4	left	665	1	1	1	1	1
Part_05	1	2	116	4	left	481.09	1	1	1	1	1
Part_05	1	2	117	7	right	920.94	1	1	1	1	1
Part_05	1	2	118	1	right	667.92	1	1	1	1	1
Part_05	1	2	119	9	right	435.68	1	1	1	1	1
Part_05	1	2	120	7	right	610.2	1	1	1	1	1
